{
  "resourceType": "MeasureReport",
  "id": "measurereport-numer-EXM816-expectedresults",
  "contained": [ {
    "resourceType": "Observation",
    "id": "92ad0b3a-92a7-472c-ab94-3bdc672df708",
    "extension": [ {
      "url": "http://hl7.org/fhir/StructureDefinition/cqf-measureInfo",
      "extension": [ {
        "url": "measure",
        "valueCanonical": "http://ecqi.healthit.gov/ecqms/Measure/HospitalHarmSevereHypoglycemiaFHIR"
      }, {
        "url": "populationId",
        "valueString": "sde-race"
      } ]
    } ],
    "status": "final",
    "code": {
      "text": "sde-race"
    },
    "valueCodeableConcept": {
      "coding": [ {
        "system": "urn:oid:2.16.840.1.113883.6.238",
        "code": "2106-3",
        "display": "White"
      } ]
    }
  }, {
    "resourceType": "Observation",
    "id": "1240cfb8-ec45-484a-8535-b6d102d055de",
    "extension": [ {
      "url": "http://hl7.org/fhir/StructureDefinition/cqf-measureInfo",
      "extension": [ {
        "url": "measure",
        "valueCanonical": "http://ecqi.healthit.gov/ecqms/Measure/HospitalHarmSevereHypoglycemiaFHIR"
      }, {
        "url": "populationId",
        "valueString": "sde-ethnicity"
      } ]
    } ],
    "status": "final",
    "code": {
      "text": "sde-ethnicity"
    },
    "valueCodeableConcept": {
      "coding": [ {
        "system": "urn:oid:2.16.840.1.113883.6.238",
        "code": "2186-5",
        "display": "Not Hispanic or Latino"
      } ]
    }
  }, {
    "resourceType": "Observation",
    "id": "f8683a8a-b248-47c2-b4e4-600b6b0941eb",
    "extension": [ {
      "url": "http://hl7.org/fhir/StructureDefinition/cqf-measureInfo",
      "extension": [ {
        "url": "measure",
        "valueCanonical": "http://ecqi.healthit.gov/ecqms/Measure/HospitalHarmSevereHypoglycemiaFHIR"
      }, {
        "url": "populationId",
        "valueString": "sde-sex"
      } ]
    } ],
    "status": "final",
    "code": {
      "text": "sde-sex"
    },
    "valueCodeableConcept": {
      "coding": [ {
        "code": "M"
      } ]
    }
  } ],
  "status": "complete",
  "type": "individual",
  "measure": "http://ecqi.healthit.gov/ecqms/Measure/HospitalHarmSevereHypoglycemiaFHIR",
  "subject": {
    "reference": "Patient/numer-EXM816"
  },
  "period": {
    "start": "2019-01-01T00:00:00+00:00",
    "end": "2019-12-31T00:00:00+00:00"
  },
  "group": [ {
    "population": [ {
      "code": {
        "coding": [ {
          "system": "http://terminology.hl7.org/CodeSystem/measure-population",
          "code": "initial-population",
          "display": "Initial Population"
        } ]
      },
      "count": 1
    }, {
      "code": {
        "coding": [ {
          "system": "http://terminology.hl7.org/CodeSystem/measure-population",
          "code": "numerator",
          "display": "Numerator"
        } ]
      },
      "count": 1
    }, {
      "code": {
        "coding": [ {
          "system": "http://terminology.hl7.org/CodeSystem/measure-population",
          "code": "denominator",
          "display": "Denominator"
        } ]
      },
      "count": 1
    } ],
    "measureScore": {
      "value": 1.0
    }
  } ],
  "evaluatedResource": [ {
    "reference": "#92ad0b3a-92a7-472c-ab94-3bdc672df708"
  }, {
    "reference": "#1240cfb8-ec45-484a-8535-b6d102d055de"
  }, {
    "reference": "#f8683a8a-b248-47c2-b4e4-600b6b0941eb"
  }, {
    "extension": [ {
      "url": "http://hl7.org/fhir/us/davinci-deqm/StructureDefinition/extension-populationReference",
      "valueString": "initial-population"
    }, {
      "url": "http://hl7.org/fhir/us/davinci-deqm/StructureDefinition/extension-populationReference",
      "valueString": "denominator"
    }, {
      "url": "http://hl7.org/fhir/us/davinci-deqm/StructureDefinition/extension-populationReference",
      "valueString": "numerator"
    } ],
    "reference": "Patient/numer-EXM816"
  }, {
    "extension": [ {
      "url": "http://hl7.org/fhir/us/davinci-deqm/StructureDefinition/extension-populationReference",
      "valueString": "initial-population"
    }, {
      "url": "http://hl7.org/fhir/us/davinci-deqm/StructureDefinition/extension-populationReference",
      "valueString": "denominator"
    }, {
      "url": "http://hl7.org/fhir/us/davinci-deqm/StructureDefinition/extension-populationReference",
      "valueString": "numerator"
    } ],
    "reference": "Encounter/numer-EXM816-Encounter"
  }, {
    "extension": [ {
      "url": "http://hl7.org/fhir/us/davinci-deqm/StructureDefinition/extension-populationReference",
      "valueString": "initial-population"
    }, {
      "url": "http://hl7.org/fhir/us/davinci-deqm/StructureDefinition/extension-populationReference",
      "valueString": "denominator"
    }, {
      "url": "http://hl7.org/fhir/us/davinci-deqm/StructureDefinition/extension-populationReference",
      "valueString": "numerator"
    } ],
    "reference": "MedicationAdministration/numer-EXM816-MedAdmin"
  }, {
    "extension": [ {
      "url": "http://hl7.org/fhir/us/davinci-deqm/StructureDefinition/extension-populationReference",
      "valueString": "numerator"
    } ],
    "reference": "Observation/numer-EXM816-Obs2"
  }, {
    "extension": [ {
      "url": "http://hl7.org/fhir/us/davinci-deqm/StructureDefinition/extension-populationReference",
      "valueString": "numerator"
    } ],
    "reference": "Observation/numer-EXM816-Obs1"
  } ]
}