{
  "resourceType": "Bundle",
  "id": "tests-denom-EXM816-bundle",
  "type": "transaction",
  "entry": [ {
    "resource": {
      "resourceType": "Encounter",
      "id": "denom-EXM816-Enc",
      "text": {
        "status": "generated"
      },
      "status": "finished",
      "type": [ {
        "coding": [ {
          "system": "http://snomed.info/sct",
          "code": "32485007",
          "display": "Emergency hospital admission (procedure)"
        } ],
        "text": "Emergency hospital admission (procedure)"
      } ],
      "subject": {
        "reference": "Patient/denom-EXM816"
      },
      "period": {
        "start": "2019-01-16T08:30:00",
        "end": "2019-01-20T08:45:00"
      }
    },
    "request": {
      "method": "PUT",
      "url": "Encounter/denom-EXM816-Enc"
    }
  }, {
    "resource": {
      "resourceType": "MeasureReport",
      "id": "measurereport-denom-EXM816",
      "contained": [ {
        "resourceType": "Observation",
        "id": "095dc90f-e19c-41c0-9d78-2e69f25ce563",
        "extension": [ {
          "url": "http://hl7.org/fhir/StructureDefinition/cqf-measureInfo",
          "extension": [ {
            "url": "measure",
            "valueCanonical": "http://ecqi.healthit.gov/ecqms/Measure/HospitalHarmSevereHypoglycemiaFHIR"
          }, {
            "url": "populationId",
            "valueString": "sde-race"
          } ]
        } ],
        "status": "final",
        "code": {
          "text": "sde-race"
        },
        "valueCodeableConcept": {
          "coding": [ {
            "system": "urn:oid:2.16.840.1.113883.6.238",
            "code": "2106-3",
            "display": "White"
          } ]
        }
      }, {
        "resourceType": "Observation",
        "id": "21765985-eb32-4f38-b2fc-9e41e07ae6ef",
        "extension": [ {
          "url": "http://hl7.org/fhir/StructureDefinition/cqf-measureInfo",
          "extension": [ {
            "url": "measure",
            "valueCanonical": "http://ecqi.healthit.gov/ecqms/Measure/HospitalHarmSevereHypoglycemiaFHIR"
          }, {
            "url": "populationId",
            "valueString": "sde-ethnicity"
          } ]
        } ],
        "status": "final",
        "code": {
          "text": "sde-ethnicity"
        },
        "valueCodeableConcept": {
          "coding": [ {
            "system": "urn:oid:2.16.840.1.113883.6.238",
            "code": "2186-5",
            "display": "Not Hispanic or Latino"
          } ]
        }
      }, {
        "resourceType": "Observation",
        "id": "fe6d30e5-1dce-4c74-81f1-3142c6875308",
        "extension": [ {
          "url": "http://hl7.org/fhir/StructureDefinition/cqf-measureInfo",
          "extension": [ {
            "url": "measure",
            "valueCanonical": "http://ecqi.healthit.gov/ecqms/Measure/HospitalHarmSevereHypoglycemiaFHIR"
          }, {
            "url": "populationId",
            "valueString": "sde-sex"
          } ]
        } ],
        "status": "final",
        "code": {
          "text": "sde-sex"
        },
        "valueCodeableConcept": {
          "coding": [ {
            "code": "M"
          } ]
        }
      } ],
      "status": "complete",
      "type": "individual",
      "measure": "http://ecqi.healthit.gov/ecqms/Measure/HospitalHarmSevereHypoglycemiaFHIR",
      "subject": {
        "reference": "Patient/denom-EXM816"
      },
      "period": {
        "start": "2019-01-01T00:00:00+00:00",
        "end": "2019-12-31T00:00:00+00:00"
      },
      "group": [ {
        "population": [ {
          "code": {
            "coding": [ {
              "system": "http://terminology.hl7.org/CodeSystem/measure-population",
              "code": "initial-population",
              "display": "Initial Population"
            } ]
          },
          "count": 1
        }, {
          "code": {
            "coding": [ {
              "system": "http://terminology.hl7.org/CodeSystem/measure-population",
              "code": "numerator",
              "display": "Numerator"
            } ]
          },
          "count": 0
        }, {
          "code": {
            "coding": [ {
              "system": "http://terminology.hl7.org/CodeSystem/measure-population",
              "code": "denominator",
              "display": "Denominator"
            } ]
          },
          "count": 1
        } ],
        "measureScore": {
          "value": 0.0
        }
      } ],
      "evaluatedResource": [ {
        "reference": "#095dc90f-e19c-41c0-9d78-2e69f25ce563"
      }, {
        "reference": "#21765985-eb32-4f38-b2fc-9e41e07ae6ef"
      }, {
        "reference": "#fe6d30e5-1dce-4c74-81f1-3142c6875308"
      }, {
        "extension": [ {
          "url": "http://hl7.org/fhir/us/davinci-deqm/StructureDefinition/extension-populationReference",
          "valueString": "initial-population"
        }, {
          "url": "http://hl7.org/fhir/us/davinci-deqm/StructureDefinition/extension-populationReference",
          "valueString": "denominator"
        }, {
          "url": "http://hl7.org/fhir/us/davinci-deqm/StructureDefinition/extension-populationReference",
          "valueString": "numerator"
        } ],
        "reference": "MedicationAdministration/denom-EXM816-MedAdmin"
      }, {
        "extension": [ {
          "url": "http://hl7.org/fhir/us/davinci-deqm/StructureDefinition/extension-populationReference",
          "valueString": "initial-population"
        }, {
          "url": "http://hl7.org/fhir/us/davinci-deqm/StructureDefinition/extension-populationReference",
          "valueString": "denominator"
        }, {
          "url": "http://hl7.org/fhir/us/davinci-deqm/StructureDefinition/extension-populationReference",
          "valueString": "numerator"
        } ],
        "reference": "Patient/denom-EXM816"
      }, {
        "extension": [ {
          "url": "http://hl7.org/fhir/us/davinci-deqm/StructureDefinition/extension-populationReference",
          "valueString": "initial-population"
        }, {
          "url": "http://hl7.org/fhir/us/davinci-deqm/StructureDefinition/extension-populationReference",
          "valueString": "denominator"
        }, {
          "url": "http://hl7.org/fhir/us/davinci-deqm/StructureDefinition/extension-populationReference",
          "valueString": "numerator"
        } ],
        "reference": "Encounter/denom-EXM816-Enc"
      }, {
        "extension": [ {
          "url": "http://hl7.org/fhir/us/davinci-deqm/StructureDefinition/extension-populationReference",
          "valueString": "numerator"
        } ],
        "reference": "Observation/denom-EXM816-Obs2"
      }, {
        "extension": [ {
          "url": "http://hl7.org/fhir/us/davinci-deqm/StructureDefinition/extension-populationReference",
          "valueString": "numerator"
        } ],
        "reference": "Observation/denom-EXM816-Obs1"
      } ]
    },
    "request": {
      "method": "PUT",
      "url": "MeasureReport/measurereport-denom-EXM816"
    }
  }, {
    "resource": {
      "resourceType": "MedicationAdministration",
      "id": "denom-EXM816-MedAdmin",
      "status": "completed",
      "medicationCodeableConcept": {
        "coding": [ {
          "system": "http://www.nlm.nih.gov/research/umls/rxnorm",
          "code": "310490",
          "display": "glipizide 5 MG Oral Tablet"
        } ]
      },
      "subject": {
        "reference": "Patient/denom-EXM816"
      },
      "effectivePeriod": {
        "start": "2019-01-17T06:30:00",
        "end": "2019-01-17T06:30:00"
      }
    },
    "request": {
      "method": "PUT",
      "url": "MedicationAdministration/denom-EXM816-MedAdmin"
    }
  }, {
    "resource": {
      "resourceType": "Observation",
      "id": "denom-EXM816-Obs1",
      "meta": {
        "profile": [ "http://hl7.org/fhir/observation" ]
      },
      "status": "final",
      "code": {
        "coding": [ {
          "system": "http://loinc.org",
          "code": "74774-1",
          "display": "Glucose [Mass/volume] in Serum, Plasma or Blood"
        } ]
      },
      "subject": {
        "reference": "Patient/denom-EXM816"
      },
      "effectiveDateTime": "2019-01-17T06:00:00",
      "valueQuantity": {
        "value": 39,
        "unit": "mg/dL",
        "system": "http://unitsofmeasure.org",
        "code": "mg/dL"
      }
    },
    "request": {
      "method": "PUT",
      "url": "Observation/denom-EXM816-Obs1"
    }
  }, {
    "resource": {
      "resourceType": "Observation",
      "id": "denom-EXM816-Obs2",
      "meta": {
        "profile": [ "http://hl7.org/fhir/observation" ]
      },
      "status": "final",
      "code": {
        "coding": [ {
          "system": "http://loinc.org",
          "code": "74774-1",
          "display": "Glucose [Mass/volume] in Serum, Plasma or Blood"
        } ]
      },
      "subject": {
        "reference": "Patient/denom-EXM816"
      },
      "effectiveDateTime": "2019-01-17T06:04:00",
      "valueQuantity": {
        "value": 81,
        "unit": "mg/dL",
        "system": "http://unitsofmeasure.org",
        "code": "mg/dL"
      }
    },
    "request": {
      "method": "PUT",
      "url": "Observation/denom-EXM816-Obs2"
    }
  }, {
    "resource": {
      "resourceType": "Patient",
      "id": "denom-EXM816",
      "meta": {
        "profile": [ "http://hl7.org/fhir/us/core/StructureDefinition/us-core-patient" ]
      },
      "extension": [ {
        "url": "http://hl7.org/fhir/us/core/StructureDefinition/us-core-race",
        "extension": [ {
          "url": "ombCategory",
          "valueCoding": {
            "system": "urn:oid:2.16.840.1.113883.6.238",
            "code": "2106-3",
            "display": "White"
          }
        } ]
      }, {
        "url": "http://hl7.org/fhir/us/core/StructureDefinition/us-core-ethnicity",
        "extension": [ {
          "url": "ombCategory",
          "valueCoding": {
            "system": "urn:oid:2.16.840.1.113883.6.238",
            "code": "2186-5",
            "display": "Not Hispanic or Latino"
          }
        } ]
      } ],
      "identifier": [ {
        "use": "usual",
        "type": {
          "coding": [ {
            "system": "http://terminology.hl7.org/CodeSystem/v2-0203",
            "code": "MR",
            "display": "Medical Record Number"
          } ]
        },
        "system": "http://hospital.smarthealthit.org",
        "value": "999999997"
      } ],
      "name": [ {
        "family": "Smith",
        "given": [ "John" ]
      } ],
      "gender": "male",
      "birthDate": "1971-07-08"
    },
    "request": {
      "method": "PUT",
      "url": "Patient/denom-EXM816"
    }
  } ]
}