{
  "resourceType": "Bundle",
  "id": "Bundle-49",
  "entry": [
    {
      "resource": {
        "resourceType": "Patient",
        "id": "Patient-49",
        "name": [
          {
            "given": [
              "OutpatientObservationVisitNoStatusDuringMP"
            ],
            "family": "DenexPass"
          }
        ],
        "birthDate": "1953-01-01",
        "gender": "female"
      }
    },
    {
      "resource": {
        "resourceType": "Encounter",
        "id": "Encounter-49-92",
        "subject": {
          "reference": "Patient/Patient-49"
        },
        "period": {
          "start": "2019-01-01T00:00:00.000Z",
          "end": "2019-12-31T23:59:59.000Z"
        },
        "type": [
          {
            "coding": [
              {
                "code": "30346009",
                "system": "http://snomed.info/sct",
                "version": "2017.09.20AA"
              }
            ]
          }
        ],
        "status": "finished"
      }
    },
    {
      "resource": {
        "resourceType": "Observation",
        "id": "Observation-49-93",
        "subject": {
          "reference": "Patient/Patient-49"
        },
        "effectiveDateTime": "2019-01-01T00:00:00.000Z",
        "code": {
          "coding": [
            {
              "code": "469860004",
              "system": "http://snomed.info/sct",
              "version": "2017.09.20AA"
            }
          ]
        }
      }
    },
    {
      "resource": {
        "resourceType": "Encounter",
        "id": "Encounter-49-94",
        "subject": {
          "reference": "Patient/Patient-49"
        },
        "period": {
          "start": "2018-01-01T00:00:00.000Z",
          "end": "2018-01-01T23:59:59.000Z"
        },
        "diagnosis": [
          {
            "condition": {
              "reference": "Condition/Condition-1178987"
            }
          }
        ],
        "type": [
          {
            "coding": [
              {
                "code": "444971000124105",
                "system": "http://snomed.info/sct",
                "version": "2017.09.20AA"
              }
            ]
          }
        ]
      }
    },
    {
      "resource": {
        "resourceType": "Encounter",
        "id": "Encounter-49-95",
        "subject": {
          "reference": "Patient/Patient-49"
        },
        "period": {
          "start": "2018-01-02T00:00:00.000Z",
          "end": "2018-01-02T23:59:59.000Z"
        },
        "diagnosis": [
          {
            "condition": {
              "reference": "Condition/Condition-1178987"
            }
          }
        ],
        "type": [
          {
            "coding": [
              {
                "code": "99220",
                "system": "http://www.ama-assn.org/go/cpt",
                "version": "2017.09.20AA"
              }
            ]
          }
        ]
      }
    },
    {
      "resource": {
        "resourceType": "Condition",
        "id": "Condition-1178987",
        "clinicalStatus": {
          "coding": [
            {
              "system": "http://terminology.hl7.org/CodeSystem/condition-clinical",
              "code": "active"
            }
          ]
        },
        "subject": {
          "reference": "Patient/Patient-49"
        },
        "code": {
          "coding": [
            {
              "code": "783771003",
              "system": "http://snomed.info/sct",
              "version": "2017.09.20AA"
            }
          ]
        }
      }
    }
  ]
}