{
  "resourceType": "Bundle",
  "id": "Bundle-52",
  "entry": [
    {
      "resource": {
        "resourceType": "Patient",
        "id": "Patient-52",
        "name": [
          {
            "given": [
              "AcuteInpatientEncounterStartsDuringMP"
            ],
            "family": "DenexPass"
          }
        ],
        "birthDate": "1956-12-31",
        "gender": "female"
      }
    },
    {
      "resource": {
        "resourceType": "Coverage",
        "id": "Coverage-52-93",
        "policyHolder": {
          "reference": "Patient/Patient-52"
        },
        "period": {
          "start": "2020-10-01T00:00:00.000Z",
          "end": "2022-12-31T23:59:59.000Z"
        },
        "type": {
          "coding": [
            {
              "system": "http://terminology.hl7.org/ValueSet/v3-ActCoverageTypeCode",
              "code": "MCPOL"
            }
          ]
        }
      }
    },
    {
      "resource": {
        "resourceType": "Observation",
        "id": "Observation-52-94",
        "subject": {
          "reference": "Patient/Patient-52"
        },
        "code": {
          "coding": [
            {
              "system": "https://www.cms.gov/Medicare/Coding/MedHCPCSGenInfo/index.html",
              "version": "2021.1.20AB",
              "code": "E0100",
              "display": "Cane, includes canes of all materials, adjustable or fixed, with tip"
            }
          ]
        },
        "effectiveDateTime": "2022-01-01T00:00:00.000Z"
      }
    },
    {
      "resource": {
        "resourceType": "Condition",
        "id": "1178987",
        "clinicalStatus": {
          "coding": [
            {
              "system": "http://terminology.hl7.org/CodeSystem/condition-clinical",
              "code": "active"
            }
          ]
        },
        "subject": {
          "reference": "Patient/Patient-52"
        },
        "code": {
          "coding": [
            {
              "system": "http://snomed.info/sct",
              "version": "2020.09.20AA",
              "code": "153931000119109",
              "display": "Acute combined systolic and diastolic heart failure"
            }
          ]
        }
      }
    },
    {
      "resource": {
        "resourceType": "Encounter",
        "id": "Encounter-52-96",
        "subject": {
          "reference": "Patient/Patient-52"
        },
        "type": [
          {
            "coding": [
              {
                "system": "http://snomed.info/sct",
                "version": "2020.09.20AA",
                "code": "304566005",
                "display": "Admission for treatment"
              }
            ]
          }
        ],
        "period": {
          "start": "2021-01-01T00:00:00.000Z",
          "end": "2022-12-31T23:59:59.000Z"
        },
        "status": "finished",
        "diagnosis": [
          {
            "condition": {
              "reference": "Condition/1178987"
            }
          }
        ]
      }
    }
  ]
}