{
  "resourceType": "Bundle",
  "id": "Bundle-50",
  "entry": [
    {
      "resource": {
        "resourceType": "Patient",
        "id": "Patient-50",
        "name": [
          {
            "given": [
              "NonacuteInpatientDischargeNoEndDate"
            ],
            "family": "DenexFail"
          }
        ],
        "birthDate": "1956-12-31",
        "gender": "female"
      }
    },
    {
      "resource": {
        "resourceType": "Coverage",
        "id": "Coverage-50-93",
        "policyHolder": {
          "reference": "Patient/Patient-50"
        },
        "period": {
          "start": "2020-10-01T00:00:00.000Z",
          "end": "2022-12-31T23:59:59.000Z"
        },
        "type": {
          "coding": [
            {
              "system": "http://terminology.hl7.org/ValueSet/v3-ActCoverageTypeCode",
              "code": "MCPOL"
            }
          ]
        }
      }
    },
    {
      "resource": {
        "resourceType": "Observation",
        "id": "Observation-50-94",
        "subject": {
          "reference": "Patient/Patient-50"
        },
        "code": {
          "coding": [
            {
              "system": "https://www.cms.gov/Medicare/Coding/MedHCPCSGenInfo/index.html",
              "version": "2021.1.20AB",
              "code": "E0100",
              "display": "Cane, includes canes of all materials, adjustable or fixed, with tip"
            }
          ]
        },
        "effectiveDateTime": "2022-01-01T00:00:00.000Z"
      }
    },
    {
      "resource": {
        "resourceType": "Encounter",
        "id": "Encounter-50-95",
        "subject": {
          "reference": "Patient/Patient-50"
        },
        "type": [
          {
            "coding": [
              {
                "version": "2012.05",
                "code": "0510",
                "display": "General"
              }
            ]
          }
        ],
        "period": {
          "start": "2021-01-01T00:00:00.000Z",
          "end": "2021-01-01T01:00:00.000Z"
        },
        "diagnosis": [
          {
            "condition": {
              "reference": "Condition/1178987"
            }
          }
        ],
        "status": "finished"
      }
    },
    {
      "resource": {
        "resourceType": "Claim",
        "id": "Claim-50-96",
        "patient": {
          "reference": "Patient/Patient-50"
        },
        "item": [
          {
            "servicedPeriod": {
              "start": "2021-01-01T00:00:00.000Z"
            },
            "revenue": {
              "coding": [
                {
                  "system": "http://www.nubc.org/patient-discharge",
                  "code": "0100"
                }
              ]
            }
          }
        ],
        "diagnosis": [
          {
            "sequence": 1,
            "diagnosisCodeableConcept": {
              "coding": [
                {
                  "system": "http://snomed.info/sct",
                  "code": "281004"
                }
              ]
            }
          }
        ],
        "type": {
          "coding": [
            {
              "system": "http://terminology.hl7.org/CodeSystem/claim-type",
              "code": "institutional"
            }
          ]
        },
        "subType": {
          "coding": [
            {
              "system": "http://www.nubc.org/patient-discharge",
              "code": "0022"
            }
          ]
        }
      }
    },
    {
      "resource": {
        "resourceType": "Condition",
        "id": "1178987",
        "clinicalStatus": {
          "coding": [
            {
              "system": "http://terminology.hl7.org/CodeSystem/condition-clinical",
              "code": "active"
            }
          ]
        },
        "subject": {
          "reference": "Patient/Patient-50"
        },
        "code": {
          "coding": [
            {
              "system": "http://snomed.info/sct",
              "version": "2020.09.20AA",
              "code": "153931000119109",
              "display": "Acute combined systolic and diastolic heart failure"
            }
          ]
        }
      }
    }
  ]
}