{
    "resourceType": "MeasureReport",
    "contained": [
        {
            "resourceType": "Observation",
            "id": "9eb07df1-86ca-465a-92ea-c9f8f40636aa",
            "extension": [
                {
                    "url": "http://hl7.org/fhir/StructureDefinition/cqf-measureInfo",
                    "extension": [
                        {
                            "url": "measure",
                            "valueCanonical": "http://ecqi.healthit.gov/ecqms/Measure/SafeUseofOpioidsConcurrentPrescribingFHIR"
                        },
                        {
                            "url": "populationId",
                            "valueString": "sde-race"
                        }
                    ]
                }
            ],
            "status": "final",
            "code": {
                "text": "sde-race"
            },
            "valueCodeableConcept": {
                "coding": [
                    {
                        "system": "urn:oid:2.16.840.1.113883.6.238",
                        "code": "2106-3",
                        "display": "White"
                    }
                ]
            }
        },
        {
            "resourceType": "Observation",
            "id": "5136197e-dab2-49d7-82cb-1954de5126d8",
            "extension": [
                {
                    "url": "http://hl7.org/fhir/StructureDefinition/cqf-measureInfo",
                    "extension": [
                        {
                            "url": "measure",
                            "valueCanonical": "http://ecqi.healthit.gov/ecqms/Measure/SafeUseofOpioidsConcurrentPrescribingFHIR"
                        },
                        {
                            "url": "populationId",
                            "valueString": "sde-ethnicity"
                        }
                    ]
                }
            ],
            "status": "final",
            "code": {
                "text": "sde-ethnicity"
            },
            "valueCodeableConcept": {
                "coding": [
                    {
                        "system": "urn:oid:2.16.840.1.113883.6.238",
                        "code": "2186-5",
                        "display": "Not Hispanic or Latino"
                    }
                ]
            }
        },
        {
            "resourceType": "Observation",
            "id": "03ddd8ff-2506-48b9-8e8d-93b1eb7981c5",
            "extension": [
                {
                    "url": "http://hl7.org/fhir/StructureDefinition/cqf-measureInfo",
                    "extension": [
                        {
                            "url": "measure",
                            "valueCanonical": "http://ecqi.healthit.gov/ecqms/Measure/SafeUseofOpioidsConcurrentPrescribingFHIR"
                        },
                        {
                            "url": "populationId",
                            "valueString": "sde-sex"
                        }
                    ]
                }
            ],
            "status": "final",
            "code": {
                "text": "sde-sex"
            },
            "valueCodeableConcept": {
                "coding": [
                    {
                        "code": "M"
                    }
                ]
            }
        }
    ],
    "status": "complete",
    "type": "individual",
    "measure": "http://ecqi.healthit.gov/ecqms/Measure/SafeUseofOpioidsConcurrentPrescribingFHIR",
    "subject": {
        "reference": "Patient/numer-EXM506"
    },
    "period": {
        "start": "2019-01-01T00:00:00+00:00",
        "end": "2019-12-31T00:00:00+00:00"
    },
    "group": [
        {
            "population": [
                {
                    "code": {
                        "coding": [
                            {
                                "system": "http://terminology.hl7.org/CodeSystem/measure-population",
                                "code": "initial-population",
                                "display": "Initial Population"
                            }
                        ]
                    },
                    "count": 1
                },
                {
                    "code": {
                        "coding": [
                            {
                                "system": "http://terminology.hl7.org/CodeSystem/measure-population",
                                "code": "numerator",
                                "display": "Numerator"
                            }
                        ]
                    },
                    "count": 1
                },
                {
                    "code": {
                        "coding": [
                            {
                                "system": "http://terminology.hl7.org/CodeSystem/measure-population",
                                "code": "denominator",
                                "display": "Denominator"
                            }
                        ]
                    },
                    "count": 1
                },
                {
                    "code": {
                        "coding": [
                            {
                                "system": "http://terminology.hl7.org/CodeSystem/measure-population",
                                "code": "denominator-exclusion",
                                "display": "Denominator Exclusion"
                            }
                        ]
                    },
                    "count": 0
                }
            ],
            "measureScore": {
                "value": 1.0
            }
        }
    ],
    "evaluatedResource": [
        {
            "reference": "#9eb07df1-86ca-465a-92ea-c9f8f40636aa"
        },
        {
            "reference": "#5136197e-dab2-49d7-82cb-1954de5126d8"
        },
        {
            "reference": "#03ddd8ff-2506-48b9-8e8d-93b1eb7981c5"
        },
        {
            "extension": [
                {
                    "url": "http://hl7.org/fhir/us/davinci-deqm/StructureDefinition/extension-populationReference",
                    "valueString": "initial-population"
                },
                {
                    "url": "http://hl7.org/fhir/us/davinci-deqm/StructureDefinition/extension-populationReference",
                    "valueString": "denominator"
                },
                {
                    "url": "http://hl7.org/fhir/us/davinci-deqm/StructureDefinition/extension-populationReference",
                    "valueString": "numerator"
                }
            ],
            "reference": "MedicationRequest/numer-EXM506-3"
        },
        {
            "extension": [
                {
                    "url": "http://hl7.org/fhir/us/davinci-deqm/StructureDefinition/extension-populationReference",
                    "valueString": "initial-population"
                },
                {
                    "url": "http://hl7.org/fhir/us/davinci-deqm/StructureDefinition/extension-populationReference",
                    "valueString": "denominator"
                },
                {
                    "url": "http://hl7.org/fhir/us/davinci-deqm/StructureDefinition/extension-populationReference",
                    "valueString": "numerator"
                }
            ],
            "reference": "MedicationRequest/numer-EXM506-4"
        },
        {
            "extension": [
                {
                    "url": "http://hl7.org/fhir/us/davinci-deqm/StructureDefinition/extension-populationReference",
                    "valueString": "initial-population"
                },
                {
                    "url": "http://hl7.org/fhir/us/davinci-deqm/StructureDefinition/extension-populationReference",
                    "valueString": "denominator"
                },
                {
                    "url": "http://hl7.org/fhir/us/davinci-deqm/StructureDefinition/extension-populationReference",
                    "valueString": "numerator"
                }
            ],
            "reference": "Patient/numer-EXM506"
        },
        {
            "extension": [
                {
                    "url": "http://hl7.org/fhir/us/davinci-deqm/StructureDefinition/extension-populationReference",
                    "valueString": "initial-population"
                },
                {
                    "url": "http://hl7.org/fhir/us/davinci-deqm/StructureDefinition/extension-populationReference",
                    "valueString": "denominator"
                },
                {
                    "url": "http://hl7.org/fhir/us/davinci-deqm/StructureDefinition/extension-populationReference",
                    "valueString": "numerator"
                }
            ],
            "reference": "Encounter/numer-EXM506-1"
        },
        {
            "extension": [
                {
                    "url": "http://hl7.org/fhir/us/davinci-deqm/StructureDefinition/extension-populationReference",
                    "valueString": "initial-population"
                },
                {
                    "url": "http://hl7.org/fhir/us/davinci-deqm/StructureDefinition/extension-populationReference",
                    "valueString": "denominator"
                },
                {
                    "url": "http://hl7.org/fhir/us/davinci-deqm/StructureDefinition/extension-populationReference",
                    "valueString": "numerator"
                }
            ],
            "reference": "MedicationRequest/numer-EXM506-2"
        },
        {
            "extension": [
                {
                    "url": "http://hl7.org/fhir/us/davinci-deqm/StructureDefinition/extension-populationReference",
                    "valueString": "initial-population"
                },
                {
                    "url": "http://hl7.org/fhir/us/davinci-deqm/StructureDefinition/extension-populationReference",
                    "valueString": "denominator"
                },
                {
                    "url": "http://hl7.org/fhir/us/davinci-deqm/StructureDefinition/extension-populationReference",
                    "valueString": "numerator"
                }
            ],
            "reference": "MedicationRequest/numer-EXM506-3"
        },
        {
            "extension": [
                {
                    "url": "http://hl7.org/fhir/us/davinci-deqm/StructureDefinition/extension-populationReference",
                    "valueString": "initial-population"
                },
                {
                    "url": "http://hl7.org/fhir/us/davinci-deqm/StructureDefinition/extension-populationReference",
                    "valueString": "denominator"
                },
                {
                    "url": "http://hl7.org/fhir/us/davinci-deqm/StructureDefinition/extension-populationReference",
                    "valueString": "numerator"
                }
            ],
            "reference": "MedicationRequest/numer-EXM506-4"
        },
        {
            "extension": [
                {
                    "url": "http://hl7.org/fhir/us/davinci-deqm/StructureDefinition/extension-populationReference",
                    "valueString": "initial-population"
                },
                {
                    "url": "http://hl7.org/fhir/us/davinci-deqm/StructureDefinition/extension-populationReference",
                    "valueString": "denominator"
                },
                {
                    "url": "http://hl7.org/fhir/us/davinci-deqm/StructureDefinition/extension-populationReference",
                    "valueString": "numerator"
                }
            ],
            "reference": "Patient/numer-EXM506"
        },
        {
            "extension": [
                {
                    "url": "http://hl7.org/fhir/us/davinci-deqm/StructureDefinition/extension-populationReference",
                    "valueString": "initial-population"
                },
                {
                    "url": "http://hl7.org/fhir/us/davinci-deqm/StructureDefinition/extension-populationReference",
                    "valueString": "denominator"
                },
                {
                    "url": "http://hl7.org/fhir/us/davinci-deqm/StructureDefinition/extension-populationReference",
                    "valueString": "numerator"
                }
            ],
            "reference": "Encounter/numer-EXM506-1"
        },
        {
            "extension": [
                {
                    "url": "http://hl7.org/fhir/us/davinci-deqm/StructureDefinition/extension-populationReference",
                    "valueString": "initial-population"
                },
                {
                    "url": "http://hl7.org/fhir/us/davinci-deqm/StructureDefinition/extension-populationReference",
                    "valueString": "denominator"
                },
                {
                    "url": "http://hl7.org/fhir/us/davinci-deqm/StructureDefinition/extension-populationReference",
                    "valueString": "numerator"
                }
            ],
            "reference": "MedicationRequest/numer-EXM506-2"
        },
        {
            "extension": [
                {
                    "url": "http://hl7.org/fhir/us/davinci-deqm/StructureDefinition/extension-populationReference",
                    "valueString": "initial-population"
                },
                {
                    "url": "http://hl7.org/fhir/us/davinci-deqm/StructureDefinition/extension-populationReference",
                    "valueString": "denominator"
                },
                {
                    "url": "http://hl7.org/fhir/us/davinci-deqm/StructureDefinition/extension-populationReference",
                    "valueString": "numerator"
                }
            ],
            "reference": "MedicationRequest/numer-EXM506-3"
        },
        {
            "extension": [
                {
                    "url": "http://hl7.org/fhir/us/davinci-deqm/StructureDefinition/extension-populationReference",
                    "valueString": "initial-population"
                },
                {
                    "url": "http://hl7.org/fhir/us/davinci-deqm/StructureDefinition/extension-populationReference",
                    "valueString": "denominator"
                },
                {
                    "url": "http://hl7.org/fhir/us/davinci-deqm/StructureDefinition/extension-populationReference",
                    "valueString": "numerator"
                }
            ],
            "reference": "MedicationRequest/numer-EXM506-4"
        },
        {
            "extension": [
                {
                    "url": "http://hl7.org/fhir/us/davinci-deqm/StructureDefinition/extension-populationReference",
                    "valueString": "initial-population"
                },
                {
                    "url": "http://hl7.org/fhir/us/davinci-deqm/StructureDefinition/extension-populationReference",
                    "valueString": "denominator"
                },
                {
                    "url": "http://hl7.org/fhir/us/davinci-deqm/StructureDefinition/extension-populationReference",
                    "valueString": "numerator"
                }
            ],
            "reference": "Patient/numer-EXM506"
        },
        {
            "extension": [
                {
                    "url": "http://hl7.org/fhir/us/davinci-deqm/StructureDefinition/extension-populationReference",
                    "valueString": "initial-population"
                },
                {
                    "url": "http://hl7.org/fhir/us/davinci-deqm/StructureDefinition/extension-populationReference",
                    "valueString": "denominator"
                },
                {
                    "url": "http://hl7.org/fhir/us/davinci-deqm/StructureDefinition/extension-populationReference",
                    "valueString": "numerator"
                }
            ],
            "reference": "Encounter/numer-EXM506-1"
        },
        {
            "extension": [
                {
                    "url": "http://hl7.org/fhir/us/davinci-deqm/StructureDefinition/extension-populationReference",
                    "valueString": "initial-population"
                },
                {
                    "url": "http://hl7.org/fhir/us/davinci-deqm/StructureDefinition/extension-populationReference",
                    "valueString": "denominator"
                },
                {
                    "url": "http://hl7.org/fhir/us/davinci-deqm/StructureDefinition/extension-populationReference",
                    "valueString": "numerator"
                }
            ],
            "reference": "MedicationRequest/numer-EXM506-2"
        }
    ]
}