{
    "resourceType": "MeasureReport",
    "contained": [
        {
            "resourceType": "Observation",
            "id": "5bbd5f6a-952b-470a-977c-91d9a452589c",
            "extension": [
                {
                    "url": "http://hl7.org/fhir/StructureDefinition/cqf-measureInfo",
                    "extension": [
                        {
                            "url": "measure",
                            "valueCanonical": "http://ecqi.healthit.gov/ecqms/Measure/SafeUseofOpioidsConcurrentPrescribingFHIR"
                        },
                        {
                            "url": "populationId",
                            "valueString": "sde-race"
                        }
                    ]
                }
            ],
            "status": "final",
            "code": {
                "text": "sde-race"
            },
            "valueCodeableConcept": {
                "coding": [
                    {
                        "system": "urn:oid:2.16.840.1.113883.6.238",
                        "code": "2106-3",
                        "display": "White"
                    }
                ]
            }
        },
        {
            "resourceType": "Observation",
            "id": "109041b9-4be6-450d-a2d0-5e663ecc909c",
            "extension": [
                {
                    "url": "http://hl7.org/fhir/StructureDefinition/cqf-measureInfo",
                    "extension": [
                        {
                            "url": "measure",
                            "valueCanonical": "http://ecqi.healthit.gov/ecqms/Measure/SafeUseofOpioidsConcurrentPrescribingFHIR"
                        },
                        {
                            "url": "populationId",
                            "valueString": "sde-ethnicity"
                        }
                    ]
                }
            ],
            "status": "final",
            "code": {
                "text": "sde-ethnicity"
            },
            "valueCodeableConcept": {
                "coding": [
                    {
                        "system": "urn:oid:2.16.840.1.113883.6.238",
                        "code": "2186-5",
                        "display": "Not Hispanic or Latino"
                    }
                ]
            }
        },
        {
            "resourceType": "Observation",
            "id": "bb8fde1f-1543-47a7-bbb7-df04d9337b9f",
            "extension": [
                {
                    "url": "http://hl7.org/fhir/StructureDefinition/cqf-measureInfo",
                    "extension": [
                        {
                            "url": "measure",
                            "valueCanonical": "http://ecqi.healthit.gov/ecqms/Measure/SafeUseofOpioidsConcurrentPrescribingFHIR"
                        },
                        {
                            "url": "populationId",
                            "valueString": "sde-sex"
                        }
                    ]
                }
            ],
            "status": "final",
            "code": {
                "text": "sde-sex"
            },
            "valueCodeableConcept": {
                "coding": [
                    {
                        "code": "F"
                    }
                ]
            }
        }
    ],
    "status": "complete",
    "type": "individual",
    "measure": "http://ecqi.healthit.gov/ecqms/Measure/SafeUseofOpioidsConcurrentPrescribingFHIR",
    "subject": {
        "reference": "Patient/denex2-EXM506"
    },
    "period": {
        "start": "2019-01-01T00:00:00+00:00",
        "end": "2019-12-31T00:00:00+00:00"
    },
    "group": [
        {
            "population": [
                {
                    "code": {
                        "coding": [
                            {
                                "system": "http://terminology.hl7.org/CodeSystem/measure-population",
                                "code": "initial-population",
                                "display": "Initial Population"
                            }
                        ]
                    },
                    "count": 1
                },
                {
                    "code": {
                        "coding": [
                            {
                                "system": "http://terminology.hl7.org/CodeSystem/measure-population",
                                "code": "numerator",
                                "display": "Numerator"
                            }
                        ]
                    },
                    "count": 0
                },
                {
                    "code": {
                        "coding": [
                            {
                                "system": "http://terminology.hl7.org/CodeSystem/measure-population",
                                "code": "denominator",
                                "display": "Denominator"
                            }
                        ]
                    },
                    "count": 0
                },
                {
                    "code": {
                        "coding": [
                            {
                                "system": "http://terminology.hl7.org/CodeSystem/measure-population",
                                "code": "denominator-exclusion",
                                "display": "Denominator Exclusion"
                            }
                        ]
                    },
                    "count": 1
                }
            ]
        }
    ],
    "evaluatedResource": [
        {
            "reference": "#5bbd5f6a-952b-470a-977c-91d9a452589c"
        },
        {
            "reference": "#109041b9-4be6-450d-a2d0-5e663ecc909c"
        },
        {
            "reference": "#bb8fde1f-1543-47a7-bbb7-df04d9337b9f"
        },
        {
            "extension": [
                {
                    "url": "http://hl7.org/fhir/us/davinci-deqm/StructureDefinition/extension-populationReference",
                    "valueString": "initial-population"
                },
                {
                    "url": "http://hl7.org/fhir/us/davinci-deqm/StructureDefinition/extension-populationReference",
                    "valueString": "denominator"
                }
            ],
            "reference": "Encounter/denex2-EXM506-1"
        },
        {
            "extension": [
                {
                    "url": "http://hl7.org/fhir/us/davinci-deqm/StructureDefinition/extension-populationReference",
                    "valueString": "initial-population"
                },
                {
                    "url": "http://hl7.org/fhir/us/davinci-deqm/StructureDefinition/extension-populationReference",
                    "valueString": "denominator"
                }
            ],
            "reference": "Patient/denex2-EXM506"
        },
        {
            "extension": [
                {
                    "url": "http://hl7.org/fhir/us/davinci-deqm/StructureDefinition/extension-populationReference",
                    "valueString": "initial-population"
                },
                {
                    "url": "http://hl7.org/fhir/us/davinci-deqm/StructureDefinition/extension-populationReference",
                    "valueString": "denominator"
                }
            ],
            "reference": "MedicationRequest/denex2-EXM506-3"
        },
        {
            "extension": [
                {
                    "url": "http://hl7.org/fhir/us/davinci-deqm/StructureDefinition/extension-populationReference",
                    "valueString": "initial-population"
                },
                {
                    "url": "http://hl7.org/fhir/us/davinci-deqm/StructureDefinition/extension-populationReference",
                    "valueString": "denominator"
                }
            ],
            "reference": "Encounter/denex2-EXM506-1"
        },
        {
            "extension": [
                {
                    "url": "http://hl7.org/fhir/us/davinci-deqm/StructureDefinition/extension-populationReference",
                    "valueString": "initial-population"
                },
                {
                    "url": "http://hl7.org/fhir/us/davinci-deqm/StructureDefinition/extension-populationReference",
                    "valueString": "denominator"
                }
            ],
            "reference": "Patient/denex2-EXM506"
        },
        {
            "extension": [
                {
                    "url": "http://hl7.org/fhir/us/davinci-deqm/StructureDefinition/extension-populationReference",
                    "valueString": "denominator"
                }
            ],
            "reference": "Procedure/denex2-EXM506-4"
        },
        {
            "extension": [
                {
                    "url": "http://hl7.org/fhir/us/davinci-deqm/StructureDefinition/extension-populationReference",
                    "valueString": "initial-population"
                },
                {
                    "url": "http://hl7.org/fhir/us/davinci-deqm/StructureDefinition/extension-populationReference",
                    "valueString": "denominator"
                }
            ],
            "reference": "MedicationRequest/denex2-EXM506-3"
        }
    ]
}