{
  "resourceType": "Bundle",
  "id": "BreastCancerScreeningsFHIR-bundle",
  "type": "transaction",
  "entry": [ {
    "resource": {
      "resourceType": "Patient",
      "id": "denom-EXM125",
      "meta": {
        "profile": [ "http://hl7.org/fhir/us/core/StructureDefinition/us-core-patient" ]
      },
      "extension": [ {
        "url": "http://hl7.org/fhir/us/core/StructureDefinition/us-core-race",
        "extension": [ {
          "url": "ombCategory",
          "valueCoding": {
            "system": "urn:oid:2.16.840.1.113883.6.238",
            "code": "2106-3",
            "display": "White"
          }
        } ]
      }, {
        "url": "http://hl7.org/fhir/us/core/StructureDefinition/us-core-ethnicity",
        "extension": [ {
          "url": "ombCategory",
          "valueCoding": {
            "system": "urn:oid:2.16.840.1.113883.6.238",
            "code": "2186-5",
            "display": "Not Hispanic or Latino"
          }
        } ]
      } ],
      "identifier": [ {
        "use": "usual",
        "type": {
          "coding": [ {
            "system": "http://terminology.hl7.org/CodeSystem/v2-0203",
            "code": "MR",
            "display": "Medical Record Number"
          } ]
        },
        "system": "http://hospital.smarthealthit.org",
        "value": "999999995"
      } ],
      "name": [ {
        "family": "Dunn",
        "given": [ "June" ]
      } ],
      "gender": "female",
      "birthDate": "1965-01-01"
    },
    "request": {
      "method": "PUT",
      "url": "Patient/denom-EXM125"
    }
  }, {
    "resource": {
      "resourceType": "Library",
      "id": "BreastCancerScreeningsFHIR",
      "meta": {
        "versionId": "2",
        "lastUpdated": "2021-04-26T13:24:07.000-04:00",
        "source": "#U9C6zBiUi7n5aTr0",
        "profile": [ "http://hl7.org/fhir/us/cqfmeasures/StructureDefinition/computable-library-cqfm" ]
      },
      "language": "en",
      "extension": [ {
        "url": "http://hl7.org/fhir/us/cqfmeasures/StructureDefinition/cqfm-softwaresystem",
        "valueReference": {
          "reference": "Device/cqf-tooling"
        }
      } ],
      "url": "http://ecqi.healthit.gov/ecqms/Library/BreastCancerScreeningsFHIR",
      "version": "0.0.002",
      "name": "BreastCancerScreeningsFHIR",
      "status": "active",
      "experimental": false,
      "type": {
        "coding": [ {
          "system": "http://terminology.hl7.org/CodeSystem/library-type",
          "code": "logic-library"
        } ]
      },
      "date": "2021-04-26T17:24:07+00:00",
      "publisher": "National Committee for Quality Assurance",
      "description": "Breast Cancer ScreeningFHIR",
      "content": [ {
        "contentType": "text/cql",
        "data": ""
      } ]
    },
    "request": {
      "method": "PUT",
      "url": "Library/BreastCancerScreeningsFHIR"
    }
  }, {
    "resource": {
      "resourceType": "Encounter",
      "id": "denom-EXM125-1",
      "meta": {
        "profile": [ "http://hl7.org/fhir/us/core/StructureDefinition/us-core-encounter" ]
      },
      "status": "finished",
      "class": {
        "system": "http://terminology.hl7.org/CodeSystem/v3-ActCode",
        "code": "AMB",
        "display": "ambulatory"
      },
      "type": [ {
        "coding": [ {
          "system": "http://www.ama-assn.org/go/cpt",
          "code": "99201",
          "display": "Office or other outpatient visit for the evaluation and management of a new patient, which requires these 3 key components: A problem focused history; A problem focused examination; Straightforward medical decision making. Counseling and/or coordination of care with other physicians, other qualified health care professionals, or agencies are provided consistent with the nature of the problem(s) and the patient's and/or family's needs. Usually, the presenting problem(s) are self limited or minor. Typically, 10 minutes are spent face-to-face with the patient and/or family."
        } ]
      } ],
      "subject": {
        "reference": "Patient/denom-EXM125"
      },
      "period": {
        "start": "2019-01-16T08:30:00",
        "end": "2019-01-20T08:30:00"
      }
    },
    "request": {
      "method": "PUT",
      "url": "Encounter/denom-EXM125-1"
    }
  }, {
    "resource": {
      "resourceType": "Encounter",
      "id": "numer-EXM125-1",
      "meta": {
        "profile": [ "http://hl7.org/fhir/us/core/StructureDefinition/us-core-encounter" ]
      },
      "status": "finished",
      "class": {
        "system": "http://terminology.hl7.org/CodeSystem/v3-ActCode",
        "code": "AMB",
        "display": "ambulatory"
      },
      "type": [ {
        "coding": [ {
          "system": "http://www.ama-assn.org/go/cpt",
          "code": "99201",
          "display": "Office or other outpatient visit for the evaluation and management of a new patient, which requires these 3 key components: A problem focused history; A problem focused examination; Straightforward medical decision making. Counseling and/or coordination of care with other physicians, other qualified health care professionals, or agencies are provided consistent with the nature of the problem(s) and the patient's and/or family's needs. Usually, the presenting problem(s) are self limited or minor. Typically, 10 minutes are spent face-to-face with the patient and/or family."
        } ]
      } ],
      "subject": {
        "reference": "Patient/numer-EXM125"
      },
      "period": {
        "start": "2019-01-16T08:30:00-00:00",
        "end": "2019-01-20T08:30:00-00:00"
      }
    },
    "request": {
      "method": "PUT",
      "url": "Encounter/numer-EXM125-1"
    }
  }, {
    "resource": {
      "resourceType": "DiagnosticReport",
      "id": "numer-EXM125-3",
      "meta": {
        "profile": [ "http://hl7.org/fhir/us/core/StructureDefinition/us-core-diagnosticreport-note" ]
      },
      "status": "final",
      "code": {
        "coding": [ {
          "system": "http://loinc.org",
          "code": "24604-1",
          "display": "MG Breast Diagnostic Limited Views"
        } ]
      },
      "subject": {
        "reference": "Patient/numer-EXM125"
      },
      "effectivePeriod": {
        "start": "2019-01-17T12:30:00",
        "end": "2019-01-17T12:30:00"
      }
    },
    "request": {
      "method": "PUT",
      "url": "DiagnosticReport/numer-EXM125-3"
    }
  }, {
    "resource": {
      "resourceType": "Measure",
      "id": "BreastCancerScreeningsFHIR",
      "meta": {
        "versionId": "2",
        "lastUpdated": "2021-04-26T13:24:08.000-04:00",
        "source": "#cn7WFg8wl2QWx7cU",
        "profile": [ "http://hl7.org/fhir/us/cqfmeasures/StructureDefinition/proportion-measure-cqfm", "http://hl7.org/fhir/us/cqfmeasures/StructureDefinition/computable-measure-cqfm" ]
      },
      "language": "en",
      "extension": [ {
        "url": "http://hl7.org/fhir/us/cqfmeasures/StructureDefinition/cqfm-populationBasis",
        "valueCode": "boolean"
      }, {
        "url": "http://hl7.org/fhir/us/cqfmeasures/StructureDefinition/cqfm-softwaresystem",
        "valueReference": {
          "reference": "Device/cqf-tooling"
        }
      }, {
        "url": "http://hl7.org/fhir/us/cqfmeasures/StructureDefinition/cqfm-parameter",
        "valueParameterDefinition": {
          "name": "Measurement Period",
          "use": "in",
          "min": 0,
          "max": "1",
          "type": "Period"
        }
      }, {
        "url": "http://hl7.org/fhir/us/cqfmeasures/StructureDefinition/cqfm-parameter",
        "valueParameterDefinition": {
          "name": "SDE Sex",
          "use": "out",
          "min": 0,
          "max": "1",
          "type": "Coding"
        }
      }, {
        "url": "http://hl7.org/fhir/us/cqfmeasures/StructureDefinition/cqfm-parameter",
        "valueParameterDefinition": {
          "name": "Numerator",
          "use": "out",
          "min": 0,
          "max": "1",
          "type": "boolean"
        }
      }, {
        "url": "http://hl7.org/fhir/us/cqfmeasures/StructureDefinition/cqfm-parameter",
        "valueParameterDefinition": {
          "name": "Denominator",
          "use": "out",
          "min": 0,
          "max": "1",
          "type": "boolean"
        }
      }, {
        "url": "http://hl7.org/fhir/us/cqfmeasures/StructureDefinition/cqfm-parameter",
        "valueParameterDefinition": {
          "name": "SDE Payer",
          "use": "out",
          "min": 0,
          "max": "*",
          "type": "Any"
        }
      }, {
        "url": "http://hl7.org/fhir/us/cqfmeasures/StructureDefinition/cqfm-parameter",
        "valueParameterDefinition": {
          "name": "Initial Population",
          "use": "out",
          "min": 0,
          "max": "1",
          "type": "boolean"
        }
      }, {
        "url": "http://hl7.org/fhir/us/cqfmeasures/StructureDefinition/cqfm-parameter",
        "valueParameterDefinition": {
          "name": "SDE Ethnicity",
          "use": "out",
          "min": 0,
          "max": "*",
          "type": "Coding"
        }
      }, {
        "url": "http://hl7.org/fhir/us/cqfmeasures/StructureDefinition/cqfm-parameter",
        "valueParameterDefinition": {
          "name": "Denominator Exclusions",
          "use": "out",
          "min": 0,
          "max": "1",
          "type": "boolean"
        }
      }, {
        "url": "http://hl7.org/fhir/us/cqfmeasures/StructureDefinition/cqfm-parameter",
        "valueParameterDefinition": {
          "name": "SDE Race",
          "use": "out",
          "min": 0,
          "max": "*",
          "type": "Coding"
        }
      }, {
        "url": "http://hl7.org/fhir/us/cqfmeasures/StructureDefinition/cqfm-dataRequirement",
        "valueDataRequirement": {
          "type": "DiagnosticReport",
          "profile": [ "http://hl7.org/fhir/StructureDefinition/DiagnosticReport" ],
          "mustSupport": [ "status", "effective" ],
          "codeFilter": [ {
            "path": "code",
            "valueSet": "http://cts.nlm.nih.gov/fhir/ValueSet/2.16.840.1.113883.3.464.1003.108.12.1018"
          } ]
        }
      }, {
        "url": "http://hl7.org/fhir/us/cqfmeasures/StructureDefinition/cqfm-dataRequirement",
        "valueDataRequirement": {
          "type": "Patient",
          "profile": [ "http://hl7.org/fhir/StructureDefinition/Patient" ],
          "mustSupport": [ "extension", "url", "value", "url", "url" ],
          "codeFilter": [ {
            "path": "url",
            "code": [ {
              "code": "http://hl7.org/fhir/us/core/StructureDefinition/us-core-ethnicity"
            } ]
          } ]
        }
      }, {
        "url": "http://hl7.org/fhir/us/cqfmeasures/StructureDefinition/cqfm-dataRequirement",
        "valueDataRequirement": {
          "type": "Encounter",
          "profile": [ "http://hl7.org/fhir/StructureDefinition/Encounter" ],
          "mustSupport": [ "hospitalization", "status", "hospitalization", "period", "hospitalization.dischargeDisposition" ],
          "codeFilter": [ {
            "path": "type",
            "valueSet": "http://cts.nlm.nih.gov/fhir/ValueSet/2.16.840.1.113883.3.666.5.307"
          } ],
          "dateFilter": [ {
            "path": "period",
            "_valueDateTime": {
              "extension": [ {
                "url": "http://hl7.org/fhir/StructureDefinition/cqf-expression",
                "valueExpression": {
                  "language": "text/cql-identifier",
                  "expression": "Measurement Period"
                }
              } ]
            }
          }, {
            "path": "period",
            "_valueDateTime": {
              "extension": [ {
                "url": "http://hl7.org/fhir/StructureDefinition/cqf-expression",
                "valueExpression": {
                  "language": "text/cql-identifier",
                  "expression": "Measurement Period"
                }
              } ]
            }
          } ]
        }
      }, {
        "url": "http://hl7.org/fhir/us/cqfmeasures/StructureDefinition/cqfm-dataRequirement",
        "valueDataRequirement": {
          "type": "ServiceRequest",
          "profile": [ "http://hl7.org/fhir/StructureDefinition/ServiceRequest" ],
          "mustSupport": [ "authoredOn", "intent" ],
          "codeFilter": [ {
            "path": "code",
            "valueSet": "http://cts.nlm.nih.gov/fhir/ValueSet/2.16.840.1.113762.1.4.1108.15"
          }, {
            "path": "intent",
            "code": [ {
              "code": "order"
            } ]
          }, {
            "path": "intent",
            "code": [ {
              "code": "order"
            } ]
          } ],
          "dateFilter": [ {
            "path": "authoredOn",
            "_valueDateTime": {
              "extension": [ {
                "url": "http://hl7.org/fhir/StructureDefinition/cqf-expression",
                "valueExpression": {
                  "language": "text/cql-identifier",
                  "expression": "Measurement Period"
                }
              } ]
            }
          }, {
            "path": "authoredOn",
            "_valueDateTime": {
              "extension": [ {
                "url": "http://hl7.org/fhir/StructureDefinition/cqf-expression",
                "valueExpression": {
                  "language": "text/cql-identifier",
                  "expression": "Measurement Period"
                }
              } ]
            }
          } ]
        }
      }, {
        "url": "http://hl7.org/fhir/us/cqfmeasures/StructureDefinition/cqfm-dataRequirement",
        "valueDataRequirement": {
          "type": "Procedure",
          "profile": [ "http://hl7.org/fhir/StructureDefinition/Procedure" ],
          "mustSupport": [ "performed", "status" ],
          "codeFilter": [ {
            "path": "code",
            "valueSet": "http://cts.nlm.nih.gov/fhir/ValueSet/2.16.840.1.113762.1.4.1108.15"
          }, {
            "path": "status",
            "code": [ {
              "code": "completed"
            } ]
          }, {
            "path": "status",
            "code": [ {
              "code": "completed"
            } ]
          } ]
        }
      }, {
        "url": "http://hl7.org/fhir/us/cqfmeasures/StructureDefinition/cqfm-dataRequirement",
        "valueDataRequirement": {
          "type": "Condition",
          "profile": [ "http://hl7.org/fhir/StructureDefinition/Condition" ],
          "mustSupport": [ "bodySite" ],
          "codeFilter": [ {
            "path": "code",
            "valueSet": "http://cts.nlm.nih.gov/fhir/ValueSet/2.16.840.1.113883.3.464.1003.198.12.1071"
          } ]
        }
      }, {
        "url": "http://hl7.org/fhir/us/cqfmeasures/StructureDefinition/cqfm-dataRequirement",
        "valueDataRequirement": {
          "type": "Condition",
          "profile": [ "http://hl7.org/fhir/StructureDefinition/Condition" ],
          "mustSupport": [ "bodySite" ],
          "codeFilter": [ {
            "path": "code",
            "valueSet": "http://cts.nlm.nih.gov/fhir/ValueSet/2.16.840.1.113883.3.464.1003.198.12.1071"
          } ]
        }
      }, {
        "url": "http://hl7.org/fhir/us/cqfmeasures/StructureDefinition/cqfm-dataRequirement",
        "valueDataRequirement": {
          "type": "DeviceRequest",
          "profile": [ "http://hl7.org/fhir/StructureDefinition/DeviceRequest" ],
          "mustSupport": [ "authoredOn" ],
          "codeFilter": [ {
            "path": "code",
            "valueSet": "http://cts.nlm.nih.gov/fhir/ValueSet/2.16.840.1.113883.3.464.1003.118.12.1300"
          } ],
          "dateFilter": [ {
            "path": "authoredOn",
            "_valueDateTime": {
              "extension": [ {
                "url": "http://hl7.org/fhir/StructureDefinition/cqf-expression",
                "valueExpression": {
                  "language": "text/cql-identifier",
                  "expression": "Measurement Period"
                }
              } ]
            }
          }, {
            "path": "authoredOn",
            "_valueDateTime": {
              "extension": [ {
                "url": "http://hl7.org/fhir/StructureDefinition/cqf-expression",
                "valueExpression": {
                  "language": "text/cql-identifier",
                  "expression": "Measurement Period"
                }
              } ]
            }
          }, {
            "path": "authoredOn",
            "_valueDateTime": {
              "extension": [ {
                "url": "http://hl7.org/fhir/StructureDefinition/cqf-expression",
                "valueExpression": {
                  "language": "text/cql-identifier",
                  "expression": "Measurement Period"
                }
              } ]
            }
          } ]
        }
      }, {
        "url": "http://hl7.org/fhir/us/cqfmeasures/StructureDefinition/cqfm-dataRequirement",
        "valueDataRequirement": {
          "type": "Observation",
          "profile": [ "http://hl7.org/fhir/StructureDefinition/Observation" ],
          "mustSupport": [ "effective" ],
          "codeFilter": [ {
            "path": "code",
            "valueSet": "http://cts.nlm.nih.gov/fhir/ValueSet/2.16.840.1.113883.3.464.1003.118.12.1300"
          } ]
        }
      }, {
        "url": "http://hl7.org/fhir/us/cqfmeasures/StructureDefinition/cqfm-dataRequirement",
        "valueDataRequirement": {
          "type": "Condition",
          "profile": [ "http://hl7.org/fhir/StructureDefinition/Condition" ],
          "codeFilter": [ {
            "path": "code",
            "valueSet": "http://cts.nlm.nih.gov/fhir/ValueSet/2.16.840.1.113883.3.464.1003.113.12.1074"
          } ]
        }
      }, {
        "url": "http://hl7.org/fhir/us/cqfmeasures/StructureDefinition/cqfm-dataRequirement",
        "valueDataRequirement": {
          "type": "Encounter",
          "profile": [ "http://hl7.org/fhir/StructureDefinition/Encounter" ],
          "mustSupport": [ "period" ],
          "codeFilter": [ {
            "path": "type",
            "valueSet": "http://cts.nlm.nih.gov/fhir/ValueSet/2.16.840.1.113883.3.464.1003.101.12.1088"
          } ]
        }
      }, {
        "url": "http://hl7.org/fhir/us/cqfmeasures/StructureDefinition/cqfm-dataRequirement",
        "valueDataRequirement": {
          "type": "Observation",
          "profile": [ "http://hl7.org/fhir/StructureDefinition/Observation" ],
          "mustSupport": [ "effective" ],
          "codeFilter": [ {
            "path": "code",
            "valueSet": "http://cts.nlm.nih.gov/fhir/ValueSet/2.16.840.1.113883.3.464.1003.113.12.1075"
          } ]
        }
      }, {
        "url": "http://hl7.org/fhir/us/cqfmeasures/StructureDefinition/cqfm-dataRequirement",
        "valueDataRequirement": {
          "type": "Patient",
          "profile": [ "http://hl7.org/fhir/StructureDefinition/Patient" ],
          "mustSupport": [ "url", "value", "url", "extension", "url" ],
          "codeFilter": [ {
            "path": "url",
            "code": [ {
              "code": "http://hl7.org/fhir/us/core/StructureDefinition/us-core-race"
            } ]
          } ]
        }
      }, {
        "url": "http://hl7.org/fhir/us/cqfmeasures/StructureDefinition/cqfm-directReferenceCode",
        "valueCoding": {
          "system": "http://snomed.info/sct",
          "version": "http://snomed.info/sct/version/201709",
          "code": "428361000124107",
          "display": "Discharge to home for hospice care (procedure)"
        }
      }, {
        "url": "http://hl7.org/fhir/us/cqfmeasures/StructureDefinition/cqfm-directReferenceCode",
        "valueCoding": {
          "system": "http://snomed.info/sct",
          "version": "http://snomed.info/sct/version/201709",
          "code": "428371000124100",
          "display": "Discharge to healthcare facility for hospice care (procedure)"
        }
      } ],
      "url": "http://ecqi.healthit.gov/ecqms/Measure/BreastCancerScreeningsFHIR",
      "identifier": [ {
        "use": "official",
        "system": "http://hl7.org/fhir/cqi/ecqm/Measure/Identifier/guid",
        "value": "11874732-397f-4f8c-bc39-67ccf3fae750"
      }, {
        "use": "official",
        "system": "http://hl7.org/fhir/cqi/ecqm/Measure/Identifier/cms",
        "value": "125FHIR"
      } ],
      "version": "0.0.002",
      "name": "BreastCancerScreeningsFHIR",
      "title": "Breast Cancer ScreeningFHIR",
      "status": "draft",
      "experimental": false,
      "date": "2021-07-19T17:28:35-06:00",
      "publisher": "National Committee for Quality Assurance",
      "contact": [ {
        "telecom": [ {
          "system": "url",
          "value": "https://cms.gov"
        } ]
      } ],
      "description": "Percentage of women 50-74 years of age who had a mammogram to screen for breast cancer in the 27 months prior to the end of the Measurement Period",
      "purpose": "Unknown",
      "copyright": "This Physician Performance Measure (Measure) and related data specifications are owned and were developed by the National Committee for Quality Assurance (NCQA). NCQA is not responsible for any use of the Measure. NCQA makes no representations, warranties, or endorsement about the quality of any organization or physician that uses or reports performance measures and NCQA has no liability to anyone who relies on such measures or specifications. NCQA holds a copyright in the Measure. The Measure can be reproduced and distributed, without modification, for noncommercial purposes (e.g., use by healthcare providers in connection with their practices) without obtaining approval from NCQA. Commercial use is defined as the sale, licensing, or distribution of the Measure for commercial gain, or incorporation of the Measure into a product or service that is sold, licensed or distributed for commercial gain. All commercial uses or requests for modification must be approved by NCQA and are subject to a license at the discretion of NCQA. (C) 2012-2020 National Committee for Quality Assurance. All Rights Reserved. \n\nLimited proprietary coding is contained in the Measure specifications for user convenience. Users of proprietary code sets should obtain all necessary licenses from the owners of the code sets. NCQA disclaims all liability for use or accuracy of any third party codes contained in the specifications.\n\nCPT(R) contained in the Measure specifications is copyright 2004-2020 American Medical Association. LOINC(R) copyright 2004-2020 Regenstrief Institute, Inc. This material contains SNOMED Clinical Terms(R) (SNOMED CT[R]) copyright 2004-2020 International Health Terminology Standards Development Organisation. ICD-10 copyright 2020 World Health Organization. All Rights Reserved.",
      "effectivePeriod": {
        "start": "2022-01-01",
        "end": "2022-12-31"
      },
      "relatedArtifact": [ {
        "type": "depends-on",
        "display": "Library SDE",
        "resource": "http://ecqi.healthit.gov/ecqms/Library/SupplementalDataElementsFHIR4|2.0.000"
      }, {
        "type": "depends-on",
        "display": "Library FHIRHelpers",
        "resource": "http://ecqi.healthit.gov/ecqms/Library/FHIRHelpers|4.0.001"
      }, {
        "type": "depends-on",
        "display": "Library Global",
        "resource": "http://ecqi.healthit.gov/ecqms/Library/MATGlobalCommonFunctionsFHIR4|6.0.000"
      }, {
        "type": "depends-on",
        "display": "Library FHIRHelpers",
        "resource": "http://ecqi.healthit.gov/ecqms/Library/FHIRHelpers|4.0.001"
      }, {
        "type": "depends-on",
        "display": "Library FHIRHelpers",
        "resource": "http://ecqi.healthit.gov/ecqms/Library/FHIRHelpers|4.0.001"
      }, {
        "type": "depends-on",
        "display": "Library AdultOutpatientEncounters",
        "resource": "http://ecqi.healthit.gov/ecqms/Library/AdultOutpatientEncountersFHIR4|2.0.000"
      }, {
        "type": "depends-on",
        "display": "Library FHIRHelpers",
        "resource": "http://ecqi.healthit.gov/ecqms/Library/FHIRHelpers|4.0.001"
      }, {
        "type": "depends-on",
        "display": "Library Hospice",
        "resource": "http://ecqi.healthit.gov/ecqms/Library/HospiceFHIR4|2.0.000"
      }, {
        "type": "depends-on",
        "display": "Library FHIRHelpers",
        "resource": "http://ecqi.healthit.gov/ecqms/Library/FHIRHelpers|4.0.001"
      }, {
        "type": "depends-on",
        "display": "Library Global",
        "resource": "http://ecqi.healthit.gov/ecqms/Library/MATGlobalCommonFunctionsFHIR4|6.0.000"
      }, {
        "type": "depends-on",
        "display": "Library Frailty",
        "resource": "http://ecqi.healthit.gov/ecqms/Library/AdvancedIllnessandFrailtyExclusionECQMFHIR4|5.13.000"
      }, {
        "type": "depends-on",
        "display": "Library Global",
        "resource": "http://ecqi.healthit.gov/ecqms/Library/MATGlobalCommonFunctionsFHIR4|6.0.000"
      }, {
        "type": "depends-on",
        "display": "Code system SNOMEDCT:2017-09",
        "resource": "http://snomed.info/sct|http://snomed.info/sct/version/201709"
      }, {
        "type": "depends-on",
        "display": "Value set Mammography",
        "resource": "http://cts.nlm.nih.gov/fhir/ValueSet/2.16.840.1.113883.3.464.1003.108.12.1018"
      }, {
        "type": "depends-on",
        "display": "Value set Office Visit",
        "resource": "http://cts.nlm.nih.gov/fhir/ValueSet/2.16.840.1.113883.3.464.1003.101.12.1001"
      }, {
        "type": "depends-on",
        "display": "Value set Annual Wellness Visit",
        "resource": "http://cts.nlm.nih.gov/fhir/ValueSet/2.16.840.1.113883.3.526.3.1240"
      }, {
        "type": "depends-on",
        "display": "Value set Preventive Care Services - Established Office Visit, 18 and Up",
        "resource": "http://cts.nlm.nih.gov/fhir/ValueSet/2.16.840.1.113883.3.464.1003.101.12.1025"
      }, {
        "type": "depends-on",
        "display": "Value set Preventive Care Services-Initial Office Visit, 18 and Up",
        "resource": "http://cts.nlm.nih.gov/fhir/ValueSet/2.16.840.1.113883.3.464.1003.101.12.1023"
      }, {
        "type": "depends-on",
        "display": "Value set Home Healthcare Services",
        "resource": "http://cts.nlm.nih.gov/fhir/ValueSet/2.16.840.1.113883.3.464.1003.101.12.1016"
      }, {
        "type": "depends-on",
        "display": "Value set Online Assessments",
        "resource": "http://cts.nlm.nih.gov/fhir/ValueSet/2.16.840.1.113883.3.464.1003.101.12.1089"
      }, {
        "type": "depends-on",
        "display": "Value set Telephone Visits",
        "resource": "http://cts.nlm.nih.gov/fhir/ValueSet/2.16.840.1.113883.3.464.1003.101.12.1080"
      }, {
        "type": "depends-on",
        "display": "Value set Payer",
        "resource": "http://cts.nlm.nih.gov/fhir/ValueSet/2.16.840.1.114222.4.11.3591"
      }, {
        "type": "depends-on",
        "display": "Value set Encounter Inpatient",
        "resource": "http://cts.nlm.nih.gov/fhir/ValueSet/2.16.840.1.113883.3.666.5.307"
      }, {
        "type": "depends-on",
        "display": "Value set Hospice care ambulatory",
        "resource": "http://cts.nlm.nih.gov/fhir/ValueSet/2.16.840.1.113762.1.4.1108.15"
      }, {
        "type": "depends-on",
        "display": "Value set Status Post Right Mastectomy",
        "resource": "http://cts.nlm.nih.gov/fhir/ValueSet/2.16.840.1.113883.3.464.1003.198.12.1070"
      }, {
        "type": "depends-on",
        "display": "Value set Unilateral Mastectomy, Unspecified Laterality",
        "resource": "http://cts.nlm.nih.gov/fhir/ValueSet/2.16.840.1.113883.3.464.1003.198.12.1071"
      }, {
        "type": "depends-on",
        "display": "Value set Right",
        "resource": "http://cts.nlm.nih.gov/fhir/ValueSet/2.16.840.1.113883.3.464.1003.122.12.1035"
      }, {
        "type": "depends-on",
        "display": "Value set Unilateral Mastectomy Right",
        "resource": "http://cts.nlm.nih.gov/fhir/ValueSet/2.16.840.1.113883.3.464.1003.198.12.1134"
      }, {
        "type": "depends-on",
        "display": "Value set Status Post Left Mastectomy",
        "resource": "http://cts.nlm.nih.gov/fhir/ValueSet/2.16.840.1.113883.3.464.1003.198.12.1069"
      }, {
        "type": "depends-on",
        "display": "Value set Left",
        "resource": "http://cts.nlm.nih.gov/fhir/ValueSet/2.16.840.1.113883.3.464.1003.122.12.1036"
      }, {
        "type": "depends-on",
        "display": "Value set Unilateral Mastectomy Left",
        "resource": "http://cts.nlm.nih.gov/fhir/ValueSet/2.16.840.1.113883.3.464.1003.198.12.1133"
      }, {
        "type": "depends-on",
        "display": "Value set History of bilateral mastectomy",
        "resource": "http://cts.nlm.nih.gov/fhir/ValueSet/2.16.840.1.113883.3.464.1003.198.12.1068"
      }, {
        "type": "depends-on",
        "display": "Value set Bilateral Mastectomy",
        "resource": "http://cts.nlm.nih.gov/fhir/ValueSet/2.16.840.1.113883.3.464.1003.198.12.1005"
      }, {
        "type": "depends-on",
        "display": "Value set Frailty Device",
        "resource": "http://cts.nlm.nih.gov/fhir/ValueSet/2.16.840.1.113883.3.464.1003.118.12.1300"
      }, {
        "type": "depends-on",
        "display": "Value set Frailty Diagnosis",
        "resource": "http://cts.nlm.nih.gov/fhir/ValueSet/2.16.840.1.113883.3.464.1003.113.12.1074"
      }, {
        "type": "depends-on",
        "display": "Value set Frailty Encounter",
        "resource": "http://cts.nlm.nih.gov/fhir/ValueSet/2.16.840.1.113883.3.464.1003.101.12.1088"
      }, {
        "type": "depends-on",
        "display": "Value set Frailty Symptom",
        "resource": "http://cts.nlm.nih.gov/fhir/ValueSet/2.16.840.1.113883.3.464.1003.113.12.1075"
      }, {
        "type": "depends-on",
        "display": "Value set Outpatient",
        "resource": "http://cts.nlm.nih.gov/fhir/ValueSet/2.16.840.1.113883.3.464.1003.101.12.1087"
      }, {
        "type": "depends-on",
        "display": "Value set Observation",
        "resource": "http://cts.nlm.nih.gov/fhir/ValueSet/2.16.840.1.113883.3.464.1003.101.12.1086"
      }, {
        "type": "depends-on",
        "display": "Value set Emergency Department Visit",
        "resource": "http://cts.nlm.nih.gov/fhir/ValueSet/2.16.840.1.113883.3.464.1003.101.12.1010"
      }, {
        "type": "depends-on",
        "display": "Value set Nonacute Inpatient",
        "resource": "http://cts.nlm.nih.gov/fhir/ValueSet/2.16.840.1.113883.3.464.1003.101.12.1084"
      }, {
        "type": "depends-on",
        "display": "Value set Advanced Illness",
        "resource": "http://cts.nlm.nih.gov/fhir/ValueSet/2.16.840.1.113883.3.464.1003.110.12.1082"
      }, {
        "type": "depends-on",
        "display": "Value set Acute Inpatient",
        "resource": "http://cts.nlm.nih.gov/fhir/ValueSet/2.16.840.1.113883.3.464.1003.101.12.1083"
      }, {
        "type": "depends-on",
        "display": "Value set Dementia Medications",
        "resource": "http://cts.nlm.nih.gov/fhir/ValueSet/2.16.840.1.113883.3.464.1003.196.12.1510"
      }, {
        "type": "depends-on",
        "display": "Value set Care Services in Long-Term Residential Facility",
        "resource": "http://cts.nlm.nih.gov/fhir/ValueSet/2.16.840.1.113883.3.464.1003.101.12.1014"
      }, {
        "type": "depends-on",
        "display": "Value set Nursing Facility Visit",
        "resource": "http://cts.nlm.nih.gov/fhir/ValueSet/2.16.840.1.113883.3.464.1003.101.12.1012"
      } ],
      "library": [ "http://ecqi.healthit.gov/ecqms/Library/BreastCancerScreeningsFHIR" ],
      "disclaimer": "The performance Measure is not a clinical guideline and does not establish a standard of medical care, and has not been tested for all potential applications. THE MEASURE AND SPECIFICATIONS ARE PROVIDED \"AS IS\" WITHOUT WARRANTY OF ANY KIND.\n \nDue to technical limitations, registered trademarks are indicated by (R) or [R] and unregistered trademarks are indicated by (TM) or [TM].",
      "scoring": {
        "coding": [ {
          "system": "http://terminology.hl7.org/CodeSystem/measure-scoring",
          "code": "proportion",
          "display": "Proportion"
        } ]
      },
      "type": [ {
        "coding": [ {
          "system": "http://terminology.hl7.org/CodeSystem/measure-type",
          "code": "process"
        } ]
      } ],
      "rationale": "Breast cancer is one of the most common types of cancers, accounting for 15 percent of all new cancer diagnoses in the U.S. (Noone et al, 2018). In 2015, over 3 million women were estimated to be living with breast cancer in the U.S. and it is estimated that 12 percent of women will be diagnosed with breast cancer at some point during their lifetime (Noone et al, 2018). \n\nWhile there are other factors that affect a woman's risk of developing breast cancer, advancing age is a primary risk factor. Breast cancer is most frequently diagnosed among women ages 55-64; the median age at diagnosis is 62 years (Noone et al, 2018).\n\nThe chance of a woman being diagnosed with breast cancer in a given year increases with age. By age 40, the chances are 1 in 68; by age 50 it becomes 1 in 43; by age 60, it is 1 in 29 (American Cancer Society, 2017).",
      "clinicalRecommendationStatement": "The U.S. Preventive Services Task Force (USPSTF) recommends biennial screening mammography for women aged 50-74 years (B recommendation). (USPSTF, 2016)\n\nThe decision to start screening mammography in women prior to age 50 years should be an individual one. Women who place a higher value on the potential benefit than the potential harms may choose to begin biennial screening between the ages of 40 and 49 years (C recommendation). (USPSTF, 2016) \n\nThe USPSTF concludes that the current evidence is insufficient to assess the balance of benefits and harms of screening mammography in women aged 75 years or older (I statement). (USPSTF, 2016) \n\nThe USPSTF concludes that the current evidence is insufficient to assess the benefits and harms of digital breast tomosynthesis (DBT) as a primary screening method for breast cancer (I Statement). (USPSTF, 2016) \n\nThe USPSTF concludes that the current evidence is insufficient to assess the balance of benefits and harms of adjunctive screening for breast cancer using breast ultrasonography, magnetic resonance imaging, DBT, or other methods in women identified to have dense breasts on an otherwise negative screening mammogram (I statement). (USPSTF, 2016)",
      "improvementNotation": {
        "coding": [ {
          "system": "http://terminology.hl7.org/CodeSystem/measure-improvement-notation",
          "code": "increase"
        } ]
      },
      "guidance": "Patient self-report for procedures as well as diagnostic studies should be recorded in 'Procedure, Performed' template or 'Diagnostic Study, Performed' template in QRDA-1. \n\nThis measure evaluates primary screening. Do not count biopsies, breast ultrasounds, or MRIs because they are not appropriate methods for primary breast cancer screening.\n\nThis eCQM is a patient-based measure.\n \nThis version of the eCQM uses QDM version 5.5. Please refer to the eCQI resource center (https://ecqi.healthit.gov/qdm) for more information on the QDM.",
      "group": [ {
        "population": [ {
          "id": "59495760-F805-422E-BA85-243861A8EC6D",
          "code": {
            "coding": [ {
              "system": "http://terminology.hl7.org/CodeSystem/measure-population",
              "code": "initial-population",
              "display": "Initial Population"
            } ]
          },
          "criteria": {
            "language": "text/cql.identifier",
            "expression": "Initial Population"
          }
        }, {
          "id": "03E48A41-2303-4AD9-8869-F7916CADEEBA",
          "code": {
            "coding": [ {
              "system": "http://terminology.hl7.org/CodeSystem/measure-population",
              "code": "denominator",
              "display": "Denominator"
            } ]
          },
          "criteria": {
            "language": "text/cql.identifier",
            "expression": "Denominator"
          }
        }, {
          "id": "AAB6C994-F578-43A9-807F-4E2C1F41A0C5",
          "code": {
            "coding": [ {
              "system": "http://terminology.hl7.org/CodeSystem/measure-population",
              "code": "denominator-exclusion",
              "display": "Denominator Exclusion"
            } ]
          },
          "criteria": {
            "language": "text/cql.identifier",
            "expression": "Denominator Exclusions"
          }
        }, {
          "id": "D4FEA771-F317-48EA-90AB-4B0BEDAA32DC",
          "code": {
            "coding": [ {
              "system": "http://terminology.hl7.org/CodeSystem/measure-population",
              "code": "numerator",
              "display": "Numerator"
            } ]
          },
          "criteria": {
            "language": "text/cql.identifier",
            "expression": "Numerator"
          }
        } ]
      } ],
      "supplementalData": [ {
        "id": "B6107A12-4D72-4F7C-B4E8-BA9FC0BE6E9B",
        "usage": [ {
          "coding": [ {
            "system": "http://terminology.hl7.org/CodeSystem/measure-data-usage",
            "code": "supplemental-data"
          } ]
        } ],
        "criteria": {
          "language": "text/cql.identifier",
          "expression": "SDE Ethnicity"
        }
      }, {
        "id": "BA036613-3575-46B4-83ED-AAC19098EB79",
        "usage": [ {
          "coding": [ {
            "system": "http://terminology.hl7.org/CodeSystem/measure-data-usage",
            "code": "supplemental-data"
          } ]
        } ],
        "criteria": {
          "language": "text/cql.identifier",
          "expression": "SDE Payer"
        }
      }, {
        "id": "38B58267-B0FA-48C6-BAD6-BEB44FDC456F",
        "usage": [ {
          "coding": [ {
            "system": "http://terminology.hl7.org/CodeSystem/measure-data-usage",
            "code": "supplemental-data"
          } ]
        } ],
        "criteria": {
          "language": "text/cql.identifier",
          "expression": "SDE Race"
        }
      }, {
        "id": "C91AAEAC-CFE8-49E8-A9A4-C486B886FCE8",
        "usage": [ {
          "coding": [ {
            "system": "http://terminology.hl7.org/CodeSystem/measure-data-usage",
            "code": "supplemental-data"
          } ]
        } ],
        "criteria": {
          "language": "text/cql.identifier",
          "expression": "SDE Sex"
        }
      } ]
    },
    "request": {
      "method": "PUT",
      "url": "Measure/BreastCancerScreeningsFHIR/_history/2"
    }
  }, {
    "resource": {
      "resourceType": "Patient",
      "id": "numer-EXM125",
      "meta": {
        "profile": [ "http://hl7.org/fhir/us/core/StructureDefinition/us-core-patient" ]
      },
      "extension": [ {
        "url": "http://hl7.org/fhir/us/core/StructureDefinition/us-core-race",
        "extension": [ {
          "url": "ombCategory",
          "valueCoding": {
            "system": "urn:oid:2.16.840.1.113883.6.238",
            "code": "2028-9",
            "display": "Asian"
          }
        } ]
      }, {
        "url": "http://hl7.org/fhir/us/core/StructureDefinition/us-core-ethnicity",
        "extension": [ {
          "url": "ombCategory",
          "valueCoding": {
            "system": "urn:oid:2.16.840.1.113883.6.238",
            "code": "2135-2",
            "display": "Hispanic or Latino"
          }
        } ]
      } ],
      "identifier": [ {
        "use": "usual",
        "type": {
          "coding": [ {
            "system": "http://terminology.hl7.org/CodeSystem/v2-0203",
            "code": "MR",
            "display": "Medical Record Number"
          } ]
        },
        "system": "http://hospital.smarthealthit.org",
        "value": "999999995"
      } ],
      "name": [ {
        "family": "McCarren",
        "given": [ "Karen" ]
      } ],
      "gender": "female",
      "birthDate": "1965-01-01"
    },
    "request": {
      "method": "PUT",
      "url": "Patient/numer-EXM125"
    }
  } ]
}