{
  "resourceType": "Bundle",
  "id": "DischargedonAntithromboticTherapyFHIR-bundle",
  "type": "transaction",
  "entry": [ {
    "resource": {
      "resourceType": "Library",
      "id": "DischargedonAntithromboticTherapyFHIR",
      "meta": {
        "versionId": "24",
        "lastUpdated": "2021-08-24T13:12:30.000-06:00",
        "source": "#M4MHZMhmMYNUtjQP",
        "profile": [ "http://hl7.org/fhir/us/cqfmeasures/StructureDefinition/computable-library-cqfm" ]
      },
      "language": "en",
      "extension": [ {
        "url": "http://hl7.org/fhir/us/cqfmeasures/StructureDefinition/cqfm-softwaresystem",
        "valueReference": {
          "reference": "Device/cqf-tooling"
        }
      } ],
      "url": "http://ecqi.healthit.gov/ecqms/Library/DischargedonAntithromboticTherapyFHIR",
      "version": "0.0.010",
      "name": "DischargedonAntithromboticTherapyFHIR",
      "title": "Discharged on Antithrombotic Therapy FHIR",
      "status": "active",
      "experimental": false,
      "type": {
        "coding": [ {
          "system": "http://terminology.hl7.org/CodeSystem/library-type",
          "code": "logic-library"
        } ]
      },
      "date": "2021-08-24T19:12:29+00:00",
      "publisher": "The Joint Commission",
      "description": "Discharged on Antithrombotic Therapy FHIR",
      "relatedArtifact": [ {
        "type": "depends-on",
        "display": "FHIR model information",
        "resource": "http://fhir.org/guides/cqf/common/Library/FHIR-ModelInfo|4.0.1"
      }, {
        "type": "depends-on",
        "display": "Library FHIRHelpers",
        "resource": "http://ecqi.healthit.gov/ecqms/Library/FHIRHelpers|4.0.001"
      }, {
        "type": "depends-on",
        "display": "Library SDE",
        "resource": "http://ecqi.healthit.gov/ecqms/Library/SupplementalDataElementsFHIR4|2.0.000"
      }, {
        "type": "depends-on",
        "display": "Library Global",
        "resource": "http://ecqi.healthit.gov/ecqms/Library/MATGlobalCommonFunctionsFHIR4|6.1.000"
      }, {
        "type": "depends-on",
        "display": "Library TJC",
        "resource": "http://ecqi.healthit.gov/ecqms/Library/TJCOverallFHIR|1.8.000"
      }, {
        "type": "depends-on",
        "display": "Code system MedicationRequestCategory",
        "resource": "http://terminology.hl7.org/CodeSystem/medicationrequest-category"
      }, {
        "type": "depends-on",
        "display": "Value set Antithrombotic Therapy",
        "resource": "http://cts.nlm.nih.gov/fhir/ValueSet/2.16.840.1.113883.3.117.1.7.1.201"
      }, {
        "type": "depends-on",
        "display": "Value set Comfort Measures",
        "resource": "http://cts.nlm.nih.gov/fhir/ValueSet/1.3.6.1.4.1.33895.1.3.0.45"
      }, {
        "type": "depends-on",
        "display": "Value set Discharge To Acute Care Facility",
        "resource": "http://cts.nlm.nih.gov/fhir/ValueSet/2.16.840.1.113883.3.117.1.7.1.87"
      }, {
        "type": "depends-on",
        "display": "Value set Discharged to Health Care Facility for Hospice Care",
        "resource": "http://cts.nlm.nih.gov/fhir/ValueSet/2.16.840.1.113883.3.117.1.7.1.207"
      }, {
        "type": "depends-on",
        "display": "Value set Discharged to Home for Hospice Care",
        "resource": "http://cts.nlm.nih.gov/fhir/ValueSet/2.16.840.1.113883.3.117.1.7.1.209"
      }, {
        "type": "depends-on",
        "display": "Value set Emergency Department Visit",
        "resource": "http://cts.nlm.nih.gov/fhir/ValueSet/2.16.840.1.113883.3.117.1.7.1.292"
      }, {
        "type": "depends-on",
        "display": "Value set Hemorrhagic Stroke",
        "resource": "http://cts.nlm.nih.gov/fhir/ValueSet/2.16.840.1.113883.3.117.1.7.1.212"
      }, {
        "type": "depends-on",
        "display": "Value set Ischemic Stroke",
        "resource": "http://cts.nlm.nih.gov/fhir/ValueSet/2.16.840.1.113883.3.117.1.7.1.247"
      }, {
        "type": "depends-on",
        "display": "Value set Left Against Medical Advice",
        "resource": "http://cts.nlm.nih.gov/fhir/ValueSet/2.16.840.1.113883.3.117.1.7.1.308"
      }, {
        "type": "depends-on",
        "display": "Value set Medical Reason",
        "resource": "http://cts.nlm.nih.gov/fhir/ValueSet/2.16.840.1.113883.3.117.1.7.1.473"
      }, {
        "type": "depends-on",
        "display": "Value set Non-Elective Inpatient Encounter",
        "resource": "http://cts.nlm.nih.gov/fhir/ValueSet/2.16.840.1.113883.3.117.1.7.1.424"
      }, {
        "type": "depends-on",
        "display": "Value set Patient Expired",
        "resource": "http://cts.nlm.nih.gov/fhir/ValueSet/2.16.840.1.113883.3.117.1.7.1.309"
      }, {
        "type": "depends-on",
        "display": "Value set Patient Refusal",
        "resource": "http://cts.nlm.nih.gov/fhir/ValueSet/2.16.840.1.113883.3.117.1.7.1.93"
      }, {
        "type": "depends-on",
        "display": "Value set Pharmacological Contraindications For Antithrombotic Therapy",
        "resource": "http://cts.nlm.nih.gov/fhir/ValueSet/2.16.840.1.113762.1.4.1110.52"
      }, {
        "type": "depends-on",
        "display": "Value set Observation Services",
        "resource": "http://cts.nlm.nih.gov/fhir/ValueSet/2.16.840.1.113762.1.4.1111.143"
      }, {
        "type": "depends-on",
        "display": "Value set Payer",
        "resource": "http://cts.nlm.nih.gov/fhir/ValueSet/2.16.840.1.114222.4.11.3591"
      } ],
      "parameter": [ {
        "name": "Measurement Period",
        "use": "in",
        "min": 0,
        "max": "1",
        "type": "Period"
      }, {
        "name": "Patient",
        "use": "out",
        "min": 0,
        "max": "1",
        "type": "Patient"
      }, {
        "name": "Denominator",
        "use": "out",
        "min": 0,
        "max": "*",
        "type": "Encounter"
      }, {
        "name": "Antithrombotic Not Given at Discharge",
        "use": "out",
        "min": 0,
        "max": "*",
        "type": "MedicationRequest"
      }, {
        "name": "Encounter With No Antithrombotic At Discharge",
        "use": "out",
        "min": 0,
        "max": "*",
        "type": "Encounter"
      }, {
        "name": "Pharmacological Contraindications for Antithrombotic Therapy at Discharge",
        "use": "out",
        "min": 0,
        "max": "*",
        "type": "MedicationRequest"
      }, {
        "name": "Encounter With Pharmacological Contraindications for Antithrombotic Therapy at Discharge",
        "use": "out",
        "min": 0,
        "max": "*",
        "type": "Encounter"
      }, {
        "name": "Denominator Exceptions",
        "use": "out",
        "min": 0,
        "max": "*",
        "type": "Encounter"
      }, {
        "name": "Denominator Exclusions",
        "use": "out",
        "min": 0,
        "max": "*",
        "type": "Encounter"
      }, {
        "name": "Initial Population",
        "use": "out",
        "min": 0,
        "max": "*",
        "type": "Encounter"
      }, {
        "name": "Antithrombotic Therapy at Discharge",
        "use": "out",
        "min": 0,
        "max": "*",
        "type": "MedicationRequest"
      }, {
        "name": "Numerator",
        "use": "out",
        "min": 0,
        "max": "*",
        "type": "Encounter"
      }, {
        "name": "SDE Ethnicity",
        "use": "out",
        "min": 0,
        "max": "*",
        "type": "Coding"
      }, {
        "name": "SDE Payer",
        "use": "out",
        "min": 0,
        "max": "*",
        "type": "Any"
      }, {
        "name": "SDE Race",
        "use": "out",
        "min": 0,
        "max": "*",
        "type": "Coding"
      }, {
        "name": "SDE Sex",
        "use": "out",
        "min": 0,
        "max": "1",
        "type": "Coding"
      } ],
      "dataRequirement": [ {
        "type": "Patient",
        "profile": [ "http://hl7.org/fhir/StructureDefinition/Patient" ],
        "mustSupport": [ "url", "extension", "value" ]
      }, {
        "type": "Encounter",
        "profile": [ "http://hl7.org/fhir/StructureDefinition/Encounter" ],
        "mustSupport": [ "type", "period" ],
        "codeFilter": [ {
          "path": "type",
          "valueSet": "http://cts.nlm.nih.gov/fhir/ValueSet/2.16.840.1.113883.3.117.1.7.1.424"
        } ]
      }, {
        "type": "Encounter",
        "profile": [ "http://hl7.org/fhir/StructureDefinition/Encounter" ],
        "mustSupport": [ "type", "period" ],
        "codeFilter": [ {
          "path": "type",
          "valueSet": "http://cts.nlm.nih.gov/fhir/ValueSet/2.16.840.1.113762.1.4.1111.143"
        } ]
      }, {
        "type": "Encounter",
        "profile": [ "http://hl7.org/fhir/StructureDefinition/Encounter" ],
        "mustSupport": [ "type", "period" ],
        "codeFilter": [ {
          "path": "type",
          "valueSet": "http://cts.nlm.nih.gov/fhir/ValueSet/2.16.840.1.113883.3.117.1.7.1.292"
        } ]
      }, {
        "type": "Condition",
        "profile": [ "http://hl7.org/fhir/StructureDefinition/Condition" ],
        "mustSupport": [ "id" ]
      }, {
        "type": "MedicationRequest",
        "profile": [ "http://hl7.org/fhir/StructureDefinition/MedicationRequest" ],
        "mustSupport": [ "medication", "doNotPerform", "category", "status", "intent", "authoredOn" ],
        "codeFilter": [ {
          "path": "medication",
          "valueSet": "http://cts.nlm.nih.gov/fhir/ValueSet/2.16.840.1.113762.1.4.1110.52"
        } ]
      }, {
        "type": "MedicationRequest",
        "profile": [ "http://hl7.org/fhir/StructureDefinition/MedicationRequest" ],
        "mustSupport": [ "medication", "doNotPerform", "reasonCode", "category", "status", "intent", "authoredOn" ],
        "codeFilter": [ {
          "path": "medication",
          "valueSet": "http://cts.nlm.nih.gov/fhir/ValueSet/2.16.840.1.113883.3.117.1.7.1.201"
        } ]
      }, {
        "type": "ServiceRequest",
        "profile": [ "http://hl7.org/fhir/StructureDefinition/ServiceRequest" ],
        "mustSupport": [ "code", "intent" ],
        "codeFilter": [ {
          "path": "code",
          "valueSet": "http://cts.nlm.nih.gov/fhir/ValueSet/1.3.6.1.4.1.33895.1.3.0.45"
        } ]
      }, {
        "type": "Procedure",
        "profile": [ "http://hl7.org/fhir/StructureDefinition/Procedure" ],
        "mustSupport": [ "code", "status" ],
        "codeFilter": [ {
          "path": "code",
          "valueSet": "http://cts.nlm.nih.gov/fhir/ValueSet/1.3.6.1.4.1.33895.1.3.0.45"
        } ]
      }, {
        "type": "Coverage",
        "profile": [ "http://hl7.org/fhir/StructureDefinition/Coverage" ],
        "mustSupport": [ "type", "period" ],
        "codeFilter": [ {
          "path": "type",
          "valueSet": "http://cts.nlm.nih.gov/fhir/ValueSet/2.16.840.1.114222.4.11.3591"
        } ]
      } ],
      "content": [ {
        "contentType": "text/cql",
        "data": ""
      }, {
        "contentType": "application/elm+xml",
        "data": ""
      }, {
        "contentType": "application/elm+json",
        "data": ""
      } ]
    },
    "request": {
      "method": "PUT",
      "url": "Library/DischargedonAntithromboticTherapyFHIR"
    }
  }, {
    "resource": {
      "resourceType": "MeasureReport",
      "id": "measurereport-no-ip-EXM104",
      "status": "complete",
      "type": "individual",
      "measure": "http://ecqi.healthit.gov/ecqms/Measure/DischargedonAntithromboticTherapyFHIR",
      "subject": {
        "reference": "Patient/no-ip-EXM104"
      },
      "period": {
        "start": "2019-01-01T00:00:00-07:00",
        "end": "2019-12-31T00:00:00-07:00"
      },
      "group": [ {
        "id": "group-1",
        "population": [ {
          "code": {
            "coding": [ {
              "system": "http://terminology.hl7.org/CodeSystem/measure-population",
              "code": "initial-population",
              "display": "Initial Population"
            } ]
          },
          "count": 0
        }, {
          "code": {
            "coding": [ {
              "system": "http://terminology.hl7.org/CodeSystem/measure-population",
              "code": "numerator",
              "display": "Numerator"
            } ]
          },
          "count": 0
        }, {
          "code": {
            "coding": [ {
              "system": "http://terminology.hl7.org/CodeSystem/measure-population",
              "code": "denominator",
              "display": "Denominator"
            } ]
          },
          "count": 0
        }, {
          "code": {
            "coding": [ {
              "system": "http://terminology.hl7.org/CodeSystem/measure-population",
              "code": "denominator-exclusion",
              "display": "Denominator Exclusion"
            } ]
          },
          "count": 0
        }, {
          "code": {
            "coding": [ {
              "system": "http://terminology.hl7.org/CodeSystem/measure-population",
              "code": "denominator-exception",
              "display": "Denominator Exception"
            } ]
          },
          "count": 0
        } ]
      } ],
      "evaluatedResource": [ {
        "extension": [ {
          "url": "http://hl7.org/fhir/us/davinci-deqm/StructureDefinition/extension-populationReference",
          "valueString": "initial-population"
        } ],
        "reference": "Condition/no-ip-EXM104-1"
      }, {
        "extension": [ {
          "url": "http://hl7.org/fhir/us/davinci-deqm/StructureDefinition/extension-populationReference",
          "valueString": "initial-population"
        } ],
        "reference": "Patient/no-ip-EXM104"
      }, {
        "extension": [ {
          "url": "http://hl7.org/fhir/us/davinci-deqm/StructureDefinition/extension-populationReference",
          "valueString": "initial-population"
        } ],
        "reference": "Encounter/no-ip-EXM104-2"
      } ]
    },
    "request": {
      "method": "PUT",
      "url": "MeasureReport/measurereport-no-ip-EXM104"
    }
  }, {
    "resource": {
      "resourceType": "Library",
      "id": "MATGlobalCommonFunctionsFHIR4",
      "meta": {
        "versionId": "1",
        "lastUpdated": "2021-06-25T14:00:54.000-06:00",
        "source": "#PzFmg8UE9DIpvOPU",
        "profile": [ "http://hl7.org/fhir/us/cqfmeasures/StructureDefinition/computable-library-cqfm" ]
      },
      "language": "en",
      "extension": [ {
        "url": "http://hl7.org/fhir/us/cqfmeasures/StructureDefinition/cqfm-softwaresystem",
        "valueReference": {
          "reference": "Device/cqf-tooling"
        }
      } ],
      "url": "http://ecqi.healthit.gov/ecqms/Library/MATGlobalCommonFunctionsFHIR4",
      "version": "6.1.000",
      "name": "MATGlobalCommonFunctionsFHIR4",
      "title": "MAT Global Common Functions FHIR4",
      "status": "active",
      "experimental": false,
      "type": {
        "coding": [ {
          "system": "http://terminology.hl7.org/CodeSystem/library-type",
          "code": "logic-library"
        } ]
      },
      "date": "2021-06-25T20:00:54+00:00",
      "publisher": "Mathematica",
      "description": "MATGlobalCommonFunctionsFHIR4",
      "relatedArtifact": [ {
        "type": "depends-on",
        "display": "FHIR model information",
        "resource": "http://fhir.org/guides/cqf/common/Library/FHIR-ModelInfo|4.0.1"
      }, {
        "type": "depends-on",
        "display": "Library FHIRHelpers",
        "resource": "http://ecqi.healthit.gov/ecqms/Library/FHIRHelpers|4.0.001"
      }, {
        "type": "depends-on",
        "display": "Code system ConditionClinicalStatusCodes",
        "resource": "http://terminology.hl7.org/CodeSystem/condition-clinical"
      }, {
        "type": "depends-on",
        "display": "Code system AllergyIntoleranceClinicalStatusCodes",
        "resource": "http://terminology.hl7.org/CodeSystem/allergyintolerance-clinical"
      }, {
        "type": "depends-on",
        "display": "Code system AllergyIntoleranceVerificationStatusCodes",
        "resource": "http://terminology.hl7.org/CodeSystem/allergyintolerance-verification"
      }, {
        "type": "depends-on",
        "display": "Code system Diagnosis Role",
        "resource": "http://terminology.hl7.org/CodeSystem/diagnosis-role"
      }, {
        "type": "depends-on",
        "display": "Code system LOINC",
        "resource": "http://loinc.org"
      }, {
        "type": "depends-on",
        "display": "Code system MedicationRequestCategory",
        "resource": "http://terminology.hl7.org/CodeSystem/medicationrequest-category"
      }, {
        "type": "depends-on",
        "display": "Code system ConditionVerificationStatusCodes",
        "resource": "http://terminology.hl7.org/CodeSystem/condition-ver-status"
      }, {
        "type": "depends-on",
        "display": "Code system SNOMEDCT",
        "resource": "http://snomed.info/sct"
      }, {
        "type": "depends-on",
        "display": "Code system RoleCode",
        "resource": "http://terminology.hl7.org/CodeSystem/v3-RoleCode"
      }, {
        "type": "depends-on",
        "display": "Value set Emergency Department Visit",
        "resource": "http://cts.nlm.nih.gov/fhir/ValueSet/2.16.840.1.113883.3.117.1.7.1.292"
      }, {
        "type": "depends-on",
        "display": "Value set Encounter Inpatient",
        "resource": "http://cts.nlm.nih.gov/fhir/ValueSet/2.16.840.1.113883.3.666.5.307"
      }, {
        "type": "depends-on",
        "display": "Value set Observation Services",
        "resource": "http://cts.nlm.nih.gov/fhir/ValueSet/2.16.840.1.113762.1.4.1111.143"
      }, {
        "type": "depends-on",
        "display": "Value set Present on Admission or Clinically Undetermined",
        "resource": "http://cts.nlm.nih.gov/fhir/ValueSet/2.16.840.1.113762.1.4.1147.197"
      } ],
      "parameter": [ {
        "name": "Measurement Period",
        "use": "in",
        "min": 0,
        "max": "1",
        "type": "Period"
      }, {
        "name": "Patient",
        "use": "out",
        "min": 0,
        "max": "1",
        "type": "Patient"
      }, {
        "name": "Inpatient Encounter",
        "use": "out",
        "min": 0,
        "max": "*",
        "type": "Encounter"
      } ],
      "dataRequirement": [ {
        "type": "Patient",
        "profile": [ "http://hl7.org/fhir/StructureDefinition/Patient" ]
      }, {
        "type": "Encounter",
        "profile": [ "http://hl7.org/fhir/StructureDefinition/Encounter" ],
        "mustSupport": [ "type", "status", "period" ],
        "codeFilter": [ {
          "path": "type",
          "valueSet": "http://cts.nlm.nih.gov/fhir/ValueSet/2.16.840.1.113883.3.666.5.307"
        } ]
      }, {
        "type": "Encounter",
        "profile": [ "http://hl7.org/fhir/StructureDefinition/Encounter" ],
        "mustSupport": [ "type", "period" ],
        "codeFilter": [ {
          "path": "type",
          "valueSet": "http://cts.nlm.nih.gov/fhir/ValueSet/2.16.840.1.113762.1.4.1111.143"
        } ]
      }, {
        "type": "Encounter",
        "profile": [ "http://hl7.org/fhir/StructureDefinition/Encounter" ],
        "mustSupport": [ "type", "status", "period" ],
        "codeFilter": [ {
          "path": "type",
          "valueSet": "http://cts.nlm.nih.gov/fhir/ValueSet/2.16.840.1.113883.3.117.1.7.1.292"
        } ]
      }, {
        "type": "Condition",
        "profile": [ "http://hl7.org/fhir/StructureDefinition/Condition" ],
        "mustSupport": [ "id" ]
      }, {
        "type": "Location",
        "profile": [ "http://hl7.org/fhir/StructureDefinition/Location" ],
        "mustSupport": [ "id" ]
      }, {
        "type": "Provenance",
        "profile": [ "http://hl7.org/fhir/StructureDefinition/Provenance" ],
        "mustSupport": [ "target" ],
        "codeFilter": [ {
          "path": "target"
        } ]
      } ],
      "content": [ {
        "contentType": "text/cql",
        "data": ""
      }, {
        "contentType": "application/elm+xml",
        "data": ""
      }, {
        "contentType": "application/elm+json",
        "data": ""
      } ]
    },
    "request": {
      "method": "PUT",
      "url": "Library/MATGlobalCommonFunctionsFHIR4"
    }
  }, {
    "resource": {
      "resourceType": "Encounter",
      "id": "denomexcl-EXM104-2",
      "meta": {
        "profile": [ "http://hl7.org/fhir/us/core/StructureDefinition/us-core-encounter" ]
      },
      "status": "finished",
      "class": {
        "system": "http://terminology.hl7.org/CodeSystem/v3-ActCode",
        "code": "IMP",
        "display": "inpatient encounter"
      },
      "type": [ {
        "coding": [ {
          "system": "http://snomed.info/sct",
          "code": "32485007",
          "display": "Hospital admission (procedure)"
        } ]
      } ],
      "subject": {
        "reference": "Patient/denomexcl-EXM104"
      },
      "period": {
        "start": "2019-08-21T00:00:00-06:00",
        "end": "2019-12-19T08:15:00-07:00"
      },
      "diagnosis": [ {
        "condition": {
          "reference": "Condition/denomexcl-EXM104-1"
        },
        "use": {
          "coding": [ {
            "system": "http://hl7.org/fhir/diagnosis-role",
            "code": "billing",
            "display": "Billing"
          } ]
        },
        "rank": 1
      } ]
    },
    "request": {
      "method": "PUT",
      "url": "Encounter/denomexcl-EXM104-2"
    }
  }, {
    "resource": {
      "resourceType": "Condition",
      "id": "denomexcl-EXM104-1",
      "meta": {
        "profile": [ "http://hl7.org/fhir/us/core/StructureDefinition/us-core-condition" ]
      },
      "verificationStatus": {
        "coding": [ {
          "system": "http://terminology.hl7.org/CodeSystem/condition-ver-status",
          "code": "confirmed",
          "display": "Confirmed"
        } ]
      },
      "category": [ {
        "coding": [ {
          "system": "http://terminology.hl7.org/CodeSystem/condition-category",
          "code": "encounter-diagnosis",
          "display": "Encounter Diagnosis"
        } ]
      } ],
      "code": {
        "coding": [ {
          "system": "http://snomed.info/sct",
          "code": "116288000",
          "display": "Paralytic stroke (disorder)"
        } ]
      },
      "subject": {
        "reference": "Patient/denomexcl-EXM104"
      }
    },
    "request": {
      "method": "PUT",
      "url": "Condition/denomexcl-EXM104-1"
    }
  }, {
    "resource": {
      "resourceType": "Patient",
      "id": "numer-EXM104",
      "meta": {
        "profile": [ "http://hl7.org/fhir/us/core/StructureDefinition/us-core-patient" ]
      },
      "extension": [ {
        "url": "http://hl7.org/fhir/us/core/StructureDefinition/us-core-race",
        "extension": [ {
          "url": "ombCategory",
          "valueCoding": {
            "system": "urn:oid:2.16.840.1.113883.6.238",
            "code": "2106-3",
            "display": "White"
          }
        } ]
      }, {
        "url": "http://hl7.org/fhir/us/core/StructureDefinition/us-core-ethnicity",
        "extension": [ {
          "url": "ombCategory",
          "valueCoding": {
            "system": "urn:oid:2.16.840.1.113883.6.238",
            "code": "2186-5",
            "display": "Not Hispanic or Latino"
          }
        } ]
      } ],
      "identifier": [ {
        "use": "usual",
        "type": {
          "coding": [ {
            "system": "http://terminology.hl7.org/CodeSystem/v2-0203",
            "code": "MR",
            "display": "Medical Record Number"
          } ]
        },
        "system": "http://hospital.smarthealthit.org",
        "value": "9999999911"
      } ],
      "name": [ {
        "family": "Jones",
        "given": [ "Louise" ]
      } ],
      "gender": "female",
      "birthDate": "1971-11-21"
    },
    "request": {
      "method": "PUT",
      "url": "Patient/numer-EXM104"
    }
  }, {
    "resource": {
      "resourceType": "Library",
      "id": "FHIRHelpers",
      "meta": {
        "versionId": "2",
        "lastUpdated": "2021-01-28T16:14:23.000-07:00",
        "source": "#PpDYvPj7eECy0LB5",
        "profile": [ "http://hl7.org/fhir/us/cqfmeasures/StructureDefinition/computable-library-cqfm" ]
      },
      "language": "en",
      "extension": [ {
        "url": "http://hl7.org/fhir/us/cqfmeasures/StructureDefinition/cqfm-softwaresystem",
        "valueReference": {
          "reference": "Device/cqf-tooling"
        }
      } ],
      "url": "http://ecqi.healthit.gov/ecqms/Library/FHIRHelpers",
      "version": "4.0.001",
      "name": "FHIRHelpers",
      "title": "FHIRHelpers",
      "status": "active",
      "experimental": false,
      "type": {
        "coding": [ {
          "system": "http://terminology.hl7.org/CodeSystem/library-type",
          "code": "logic-library"
        } ]
      },
      "date": "2021-01-28T23:14:22+00:00",
      "publisher": "Mathematica",
      "description": "FHIRHelpers",
      "relatedArtifact": [ {
        "type": "depends-on",
        "display": "FHIR model information",
        "resource": "http://fhir.org/guides/cqf/common/Library/FHIR-ModelInfo|4.0.1"
      } ],
      "parameter": [ {
        "name": "Patient",
        "use": "out",
        "min": 0,
        "max": "1",
        "type": "Patient"
      } ],
      "dataRequirement": [ {
        "type": "Patient",
        "profile": [ "http://hl7.org/fhir/StructureDefinition/Patient" ]
      } ],
      "content": [ {
        "contentType": "text/cql",
        "data": ""
      }, {
        "contentType": "application/elm+xml",
        "data": ""
      }, {
        "contentType": "application/elm+json",
        "data": ""
      } ]
    },
    "request": {
      "method": "PUT",
      "url": "Library/FHIRHelpers"
    }
  }, {
    "resource": {
      "resourceType": "ValueSet",
      "id": "2.16.840.1.113883.3.117.1.7.1.424",
      "url": "http://cts.nlm.nih.gov/fhir/ValueSet/2.16.840.1.113883.3.117.1.7.1.424",
      "identifier": [ {
        "system": "urn:ietf:rfc:3986",
        "value": "2.16.840.1.113883.3.117.1.7.1.424"
      } ],
      "version": "20210220",
      "name": "Non-ElectiveInpatientEncounter",
      "title": "Non-Elective Inpatient Encounter",
      "status": "active",
      "experimental": false,
      "publisher": "NLM",
      "expansion": {
        "identifier": "20210506",
        "timestamp": "2021-07-19T17:22:06-06:00",
        "contains": [ {
          "system": "http://snomed.info/sct",
          "version": "2020-09",
          "code": "183452005",
          "display": "Emergency hospital admission (procedure)"
        }, {
          "system": "http://snomed.info/sct",
          "version": "2020-09",
          "code": "32485007",
          "display": "Hospital admission (procedure)"
        } ]
      }
    },
    "request": {
      "method": "PUT",
      "url": "ValueSet/2.16.840.1.113883.3.117.1.7.1.424"
    }
  }, {
    "resource": {
      "resourceType": "ValueSet",
      "id": "2.16.840.1.113883.3.117.1.7.1.308",
      "url": "http://cts.nlm.nih.gov/fhir/ValueSet/2.16.840.1.113883.3.117.1.7.1.308",
      "identifier": [ {
        "system": "urn:ietf:rfc:3986",
        "value": "2.16.840.1.113883.3.117.1.7.1.308"
      } ],
      "version": "20210220",
      "name": "LeftAgainstMedicalAdvice",
      "title": "Left Against Medical Advice",
      "status": "active",
      "experimental": false,
      "publisher": "NLM",
      "expansion": {
        "identifier": "20210506",
        "timestamp": "2021-07-19T17:22:06-06:00",
        "contains": [ {
          "system": "http://snomed.info/sct",
          "version": "2020-09",
          "code": "445060000",
          "display": "Left against medical advice (finding)"
        } ]
      }
    },
    "request": {
      "method": "PUT",
      "url": "ValueSet/2.16.840.1.113883.3.117.1.7.1.308"
    }
  }, {
    "resource": {
      "resourceType": "ValueSet",
      "id": "2.16.840.1.113883.3.117.1.7.1.309",
      "url": "http://cts.nlm.nih.gov/fhir/ValueSet/2.16.840.1.113883.3.117.1.7.1.309",
      "identifier": [ {
        "system": "urn:ietf:rfc:3986",
        "value": "2.16.840.1.113883.3.117.1.7.1.309"
      } ],
      "version": "20210220",
      "name": "PatientExpired",
      "title": "Patient Expired",
      "status": "active",
      "experimental": false,
      "publisher": "NLM",
      "expansion": {
        "identifier": "20210506",
        "timestamp": "2021-07-19T17:22:06-06:00",
        "contains": [ {
          "system": "http://snomed.info/sct",
          "version": "2020-09",
          "code": "371828006",
          "display": "Patient deceased during stay (discharge status = dead) (finding)"
        } ]
      }
    },
    "request": {
      "method": "PUT",
      "url": "ValueSet/2.16.840.1.113883.3.117.1.7.1.309"
    }
  }, {
    "resource": {
      "resourceType": "Patient",
      "id": "Patient-denomexcl-EXM104",
      "meta": {
        "profile": [ "http://hl7.org/fhir/us/core/StructureDefinition/us-core-patient" ]
      },
      "extension": [ {
        "url": "http://hl7.org/fhir/us/core/StructureDefinition/us-core-race",
        "extension": [ {
          "url": "ombCategory",
          "valueCoding": {
            "system": "urn:oid:2.16.840.1.113883.6.238",
            "code": "2054-5",
            "display": "Black or African American"
          }
        } ]
      }, {
        "url": "http://hl7.org/fhir/us/core/StructureDefinition/us-core-ethnicity",
        "extension": [ {
          "url": "ombCategory",
          "valueCoding": {
            "system": "urn:oid:2.16.840.1.113883.6.238",
            "code": "2135-2",
            "display": "Hispanic or Latino"
          }
        } ]
      } ],
      "identifier": [ {
        "use": "usual",
        "type": {
          "coding": [ {
            "system": "http://terminology.hl7.org/CodeSystem/v2-0203",
            "code": "MR",
            "display": "Medical Record Number"
          } ]
        },
        "system": "http://hospital.smarthealthit.org",
        "value": "9999999910"
      } ],
      "name": [ {
        "family": "Jones",
        "given": [ "Rick" ]
      } ],
      "gender": "male",
      "birthDate": "1955-11-05"
    },
    "request": {
      "method": "PUT",
      "url": "Patient/Patient-denomexcl-EXM104"
    }
  }, {
    "resource": {
      "resourceType": "ValueSet",
      "id": "2.16.840.1.113762.1.4.1",
      "url": "http://cts.nlm.nih.gov/fhir/ValueSet/2.16.840.1.113762.1.4.1",
      "identifier": [ {
        "system": "urn:ietf:rfc:3986",
        "value": "2.16.840.1.113762.1.4.1"
      } ],
      "version": "20150331",
      "name": "ONCAdministrativeSex",
      "title": "ONC Administrative Sex",
      "status": "active",
      "experimental": false,
      "publisher": "NLM",
      "expansion": {
        "identifier": "20210506",
        "timestamp": "2021-07-19T17:22:06-06:00",
        "contains": [ {
          "system": "http://terminology.hl7.org/CodeSystem/v3-AdministrativeGender",
          "version": "HL7V3.0_2020-11",
          "code": "F",
          "display": "Female"
        }, {
          "system": "http://terminology.hl7.org/CodeSystem/v3-AdministrativeGender",
          "version": "HL7V3.0_2020-11",
          "code": "M",
          "display": "Male"
        } ]
      }
    },
    "request": {
      "method": "PUT",
      "url": "ValueSet/2.16.840.1.113762.1.4.1"
    }
  }, {
    "resource": {
      "resourceType": "Library",
      "id": "TJCOverallFHIR",
      "meta": {
        "versionId": "2",
        "lastUpdated": "2021-08-18T13:21:24.000-06:00",
        "source": "#nqSdMCgv69RrJ49h",
        "profile": [ "http://hl7.org/fhir/us/cqfmeasures/StructureDefinition/computable-library-cqfm" ]
      },
      "language": "en",
      "extension": [ {
        "url": "http://hl7.org/fhir/us/cqfmeasures/StructureDefinition/cqfm-softwaresystem",
        "valueReference": {
          "reference": "Device/cqf-tooling"
        }
      } ],
      "url": "http://ecqi.healthit.gov/ecqms/Library/TJCOverallFHIR",
      "version": "1.8.000",
      "name": "TJCOverallFHIR",
      "title": "TJC Overall FHIR",
      "status": "active",
      "experimental": false,
      "type": {
        "coding": [ {
          "system": "http://terminology.hl7.org/CodeSystem/library-type",
          "code": "logic-library"
        } ]
      },
      "date": "2021-08-18T19:21:23+00:00",
      "publisher": "The Joint Commission",
      "description": "TJCOverallFHIR",
      "relatedArtifact": [ {
        "type": "depends-on",
        "display": "FHIR model information",
        "resource": "http://fhir.org/guides/cqf/common/Library/FHIR-ModelInfo|4.0.1"
      }, {
        "type": "depends-on",
        "display": "Library Global",
        "resource": "http://ecqi.healthit.gov/ecqms/Library/MATGlobalCommonFunctionsFHIR4|6.1.000"
      }, {
        "type": "depends-on",
        "display": "Library FHIRHelpers",
        "resource": "http://ecqi.healthit.gov/ecqms/Library/FHIRHelpers|4.0.001"
      }, {
        "type": "depends-on",
        "display": "Code system LOINC",
        "resource": "http://loinc.org"
      }, {
        "type": "depends-on",
        "display": "Value set Comfort Measures",
        "resource": "http://cts.nlm.nih.gov/fhir/ValueSet/1.3.6.1.4.1.33895.1.3.0.45"
      }, {
        "type": "depends-on",
        "display": "Value set Discharge To Acute Care Facility",
        "resource": "http://cts.nlm.nih.gov/fhir/ValueSet/2.16.840.1.113883.3.117.1.7.1.87"
      }, {
        "type": "depends-on",
        "display": "Value set Discharged to Health Care Facility for Hospice Care",
        "resource": "http://cts.nlm.nih.gov/fhir/ValueSet/2.16.840.1.113883.3.117.1.7.1.207"
      }, {
        "type": "depends-on",
        "display": "Value set Discharged to Home for Hospice Care",
        "resource": "http://cts.nlm.nih.gov/fhir/ValueSet/2.16.840.1.113883.3.117.1.7.1.209"
      }, {
        "type": "depends-on",
        "display": "Value set Emergency Department Visit",
        "resource": "http://cts.nlm.nih.gov/fhir/ValueSet/2.16.840.1.113883.3.117.1.7.1.292"
      }, {
        "type": "depends-on",
        "display": "Value set Encounter Inpatient",
        "resource": "http://cts.nlm.nih.gov/fhir/ValueSet/2.16.840.1.113883.3.666.5.307"
      }, {
        "type": "depends-on",
        "display": "Value set Hemorrhagic Stroke",
        "resource": "http://cts.nlm.nih.gov/fhir/ValueSet/2.16.840.1.113883.3.117.1.7.1.212"
      }, {
        "type": "depends-on",
        "display": "Value set Ischemic Stroke",
        "resource": "http://cts.nlm.nih.gov/fhir/ValueSet/2.16.840.1.113883.3.117.1.7.1.247"
      }, {
        "type": "depends-on",
        "display": "Value set Left Against Medical Advice",
        "resource": "http://cts.nlm.nih.gov/fhir/ValueSet/2.16.840.1.113883.3.117.1.7.1.308"
      }, {
        "type": "depends-on",
        "display": "Value set Non-Elective Inpatient Encounter",
        "resource": "http://cts.nlm.nih.gov/fhir/ValueSet/2.16.840.1.113883.3.117.1.7.1.424"
      }, {
        "type": "depends-on",
        "display": "Value set Observation Services",
        "resource": "http://cts.nlm.nih.gov/fhir/ValueSet/2.16.840.1.113762.1.4.1111.143"
      }, {
        "type": "depends-on",
        "display": "Value set Patient Expired",
        "resource": "http://cts.nlm.nih.gov/fhir/ValueSet/2.16.840.1.113883.3.117.1.7.1.309"
      }, {
        "type": "depends-on",
        "display": "Value set Ticagrelor Therapy",
        "resource": "http://cts.nlm.nih.gov/fhir/ValueSet/2.16.840.1.113762.1.4.1110.39"
      } ],
      "parameter": [ {
        "name": "Measurement Period",
        "use": "in",
        "min": 0,
        "max": "1",
        "type": "Period"
      }, {
        "name": "Patient",
        "use": "out",
        "min": 0,
        "max": "1",
        "type": "Patient"
      }, {
        "name": "Non Elective Inpatient Encounter",
        "use": "out",
        "min": 0,
        "max": "*",
        "type": "Encounter"
      }, {
        "name": "All Stroke Encounter",
        "use": "out",
        "min": 0,
        "max": "*",
        "type": "Encounter"
      }, {
        "name": "Encounter with Principal Diagnosis and Age",
        "use": "out",
        "min": 0,
        "max": "*",
        "type": "Encounter"
      }, {
        "name": "Ischemic Stroke Encounter",
        "use": "out",
        "min": 0,
        "max": "*",
        "type": "Encounter"
      }, {
        "name": "Ischemic Stroke Encounters with Discharge Disposition",
        "use": "out",
        "min": 0,
        "max": "*",
        "type": "Encounter"
      }, {
        "name": "Intervention Comfort Measures",
        "use": "out",
        "min": 0,
        "max": "*",
        "type": "Any"
      }, {
        "name": "Comfort Measures during Hospitalization",
        "use": "out",
        "min": 0,
        "max": "*",
        "type": "Encounter"
      }, {
        "name": "Encounter with Comfort Measures during Hospitalization",
        "use": "out",
        "min": 0,
        "max": "*",
        "type": "Encounter"
      } ],
      "dataRequirement": [ {
        "type": "Patient",
        "profile": [ "http://hl7.org/fhir/StructureDefinition/Patient" ]
      }, {
        "type": "Encounter",
        "profile": [ "http://hl7.org/fhir/StructureDefinition/Encounter" ],
        "mustSupport": [ "type", "period" ],
        "codeFilter": [ {
          "path": "type",
          "valueSet": "http://cts.nlm.nih.gov/fhir/ValueSet/2.16.840.1.113883.3.117.1.7.1.424"
        } ]
      }, {
        "type": "Encounter",
        "profile": [ "http://hl7.org/fhir/StructureDefinition/Encounter" ],
        "mustSupport": [ "type", "period" ],
        "codeFilter": [ {
          "path": "type",
          "valueSet": "http://cts.nlm.nih.gov/fhir/ValueSet/2.16.840.1.113762.1.4.1111.143"
        } ]
      }, {
        "type": "Encounter",
        "profile": [ "http://hl7.org/fhir/StructureDefinition/Encounter" ],
        "mustSupport": [ "type", "period" ],
        "codeFilter": [ {
          "path": "type",
          "valueSet": "http://cts.nlm.nih.gov/fhir/ValueSet/2.16.840.1.113883.3.117.1.7.1.292"
        } ]
      }, {
        "type": "Condition",
        "profile": [ "http://hl7.org/fhir/StructureDefinition/Condition" ],
        "mustSupport": [ "id" ]
      }, {
        "type": "ServiceRequest",
        "profile": [ "http://hl7.org/fhir/StructureDefinition/ServiceRequest" ],
        "mustSupport": [ "code", "intent" ],
        "codeFilter": [ {
          "path": "code",
          "valueSet": "http://cts.nlm.nih.gov/fhir/ValueSet/1.3.6.1.4.1.33895.1.3.0.45"
        } ]
      }, {
        "type": "Procedure",
        "profile": [ "http://hl7.org/fhir/StructureDefinition/Procedure" ],
        "mustSupport": [ "code", "status" ],
        "codeFilter": [ {
          "path": "code",
          "valueSet": "http://cts.nlm.nih.gov/fhir/ValueSet/1.3.6.1.4.1.33895.1.3.0.45"
        } ]
      } ],
      "content": [ {
        "contentType": "text/cql",
        "data": ""
      }, {
        "contentType": "application/elm+xml",
        "data": ""
      }, {
        "contentType": "application/elm+json",
        "data": ""
      } ]
    },
    "request": {
      "method": "PUT",
      "url": "Library/TJCOverallFHIR"
    }
  }, {
    "resource": {
      "resourceType": "ValueSet",
      "id": "2.16.840.1.113883.3.117.1.7.1.93",
      "url": "http://cts.nlm.nih.gov/fhir/ValueSet/2.16.840.1.113883.3.117.1.7.1.93",
      "identifier": [ {
        "system": "urn:ietf:rfc:3986",
        "value": "2.16.840.1.113883.3.117.1.7.1.93"
      } ],
      "version": "20210220",
      "name": "PatientRefusal",
      "title": "Patient Refusal",
      "status": "active",
      "experimental": false,
      "publisher": "NLM",
      "expansion": {
        "identifier": "20210506",
        "timestamp": "2021-07-19T17:22:06-06:00",
        "contains": [ {
          "system": "http://snomed.info/sct",
          "version": "2020-09",
          "code": "105480006",
          "display": "Refusal of treatment by patient (situation)"
        }, {
          "system": "http://snomed.info/sct",
          "version": "2020-09",
          "code": "182890002",
          "display": "Patient requests alternative treatment (finding)"
        }, {
          "system": "http://snomed.info/sct",
          "version": "2020-09",
          "code": "182895007",
          "display": "Drug declined by patient (situation)"
        }, {
          "system": "http://snomed.info/sct",
          "version": "2020-09",
          "code": "182896008",
          "display": "Drug declined by patient - dislikes taste (situation)"
        }, {
          "system": "http://snomed.info/sct",
          "version": "2020-09",
          "code": "182897004",
          "display": "Drug declined by patient - side effects (situation)"
        }, {
          "system": "http://snomed.info/sct",
          "version": "2020-09",
          "code": "182898009",
          "display": "Drug declined by patient - inconvenient (situation)"
        }, {
          "system": "http://snomed.info/sct",
          "version": "2020-09",
          "code": "182900006",
          "display": "Drug declined by patient - patient beliefs (situation)"
        }, {
          "system": "http://snomed.info/sct",
          "version": "2020-09",
          "code": "182901005",
          "display": "Drug declined by patient - alternative therapy (situation)"
        }, {
          "system": "http://snomed.info/sct",
          "version": "2020-09",
          "code": "182903008",
          "display": "Drug declined by patient - reason unknown (situation)"
        }, {
          "system": "http://snomed.info/sct",
          "version": "2020-09",
          "code": "183944003",
          "display": "Procedure refused (situation)"
        }, {
          "system": "http://snomed.info/sct",
          "version": "2020-09",
          "code": "183945002",
          "display": "Procedure refused for religious reason (situation)"
        }, {
          "system": "http://snomed.info/sct",
          "version": "2020-09",
          "code": "183946001",
          "display": "Procedure refused - uncooperative (situation)"
        }, {
          "system": "http://snomed.info/sct",
          "version": "2020-09",
          "code": "183947005",
          "display": "Refused procedure - after thought (situation)"
        }, {
          "system": "http://snomed.info/sct",
          "version": "2020-09",
          "code": "183948000",
          "display": "Refused procedure - parent's wish (situation)"
        }, {
          "system": "http://snomed.info/sct",
          "version": "2020-09",
          "code": "275936005",
          "display": "Patient noncompliance - general (situation)"
        }, {
          "system": "http://snomed.info/sct",
          "version": "2020-09",
          "code": "371138003",
          "display": "Refusal of treatment by parents (situation)"
        }, {
          "system": "http://snomed.info/sct",
          "version": "2020-09",
          "code": "406149000",
          "display": "Medication refused (situation)"
        }, {
          "system": "http://snomed.info/sct",
          "version": "2020-09",
          "code": "413312003",
          "display": "Patient non-compliant - refused service (situation)"
        }, {
          "system": "http://snomed.info/sct",
          "version": "2020-09",
          "code": "416432009",
          "display": "Procedure not wanted (situation)"
        }, {
          "system": "http://snomed.info/sct",
          "version": "2020-09",
          "code": "443390004",
          "display": "Refused (qualifier value)"
        }, {
          "system": "http://snomed.info/sct",
          "version": "2020-09",
          "code": "609589008",
          "display": "Refused by parents of subject (qualifier value)"
        } ]
      }
    },
    "request": {
      "method": "PUT",
      "url": "ValueSet/2.16.840.1.113883.3.117.1.7.1.93"
    }
  }, {
    "resource": {
      "resourceType": "ValueSet",
      "id": "2.16.840.1.114222.4.11.837",
      "url": "http://cts.nlm.nih.gov/fhir/ValueSet/2.16.840.1.114222.4.11.837",
      "identifier": [ {
        "system": "urn:ietf:rfc:3986",
        "value": "2.16.840.1.114222.4.11.837"
      } ],
      "version": "20121025",
      "name": "Ethnicity",
      "title": "Ethnicity",
      "status": "active",
      "experimental": false,
      "publisher": "NLM",
      "expansion": {
        "identifier": "20210506",
        "timestamp": "2021-07-19T17:22:05-06:00",
        "contains": [ {
          "system": "http://terminology.hl7.org/CodeSystem/PHRaceAndEthnicityCDC",
          "version": "1.2",
          "code": "2135-2",
          "display": "Hispanic or Latino"
        }, {
          "system": "http://terminology.hl7.org/CodeSystem/PHRaceAndEthnicityCDC",
          "version": "1.2",
          "code": "2186-5",
          "display": "Not Hispanic or Latino"
        } ]
      }
    },
    "request": {
      "method": "PUT",
      "url": "ValueSet/2.16.840.1.114222.4.11.837"
    }
  }, {
    "resource": {
      "resourceType": "Patient",
      "id": "Patient-denex-EXM104",
      "meta": {
        "profile": [ "http://hl7.org/fhir/us/core/StructureDefinition/us-core-patient" ]
      },
      "extension": [ {
        "url": "http://hl7.org/fhir/us/core/StructureDefinition/us-core-race",
        "extension": [ {
          "url": "ombCategory",
          "valueCoding": {
            "system": "urn:oid:2.16.840.1.113883.6.238",
            "code": "2106-3",
            "display": "White"
          }
        } ]
      }, {
        "url": "http://hl7.org/fhir/us/core/StructureDefinition/us-core-ethnicity",
        "extension": [ {
          "url": "ombCategory",
          "valueCoding": {
            "system": "urn:oid:2.16.840.1.113883.6.238",
            "code": "2186-5",
            "display": "Not Hispanic or Latino"
          }
        } ]
      } ],
      "identifier": [ {
        "use": "usual",
        "type": {
          "coding": [ {
            "system": "http://terminology.hl7.org/CodeSystem/v2-0203",
            "code": "MR",
            "display": "Medical Record Number"
          } ]
        },
        "system": "http://hospital.smarthealthit.org",
        "value": "9999999911"
      } ],
      "name": [ {
        "family": "Jones",
        "given": [ "Louise" ]
      } ],
      "gender": "female",
      "birthDate": "1971-11-21"
    },
    "request": {
      "method": "PUT",
      "url": "Patient/Patient-denex-EXM104"
    }
  }, {
    "resource": {
      "resourceType": "Encounter",
      "id": "denom-EXM104-2",
      "meta": {
        "profile": [ "http://hl7.org/fhir/us/core/StructureDefinition/us-core-encounter" ]
      },
      "status": "finished",
      "class": {
        "system": "http://terminology.hl7.org/CodeSystem/v3-ActCode",
        "code": "IMP",
        "display": "inpatient encounter"
      },
      "type": [ {
        "coding": [ {
          "system": "http://snomed.info/sct",
          "code": "32485007",
          "display": "Hospital admission (procedure)"
        } ]
      } ],
      "subject": {
        "reference": "Patient/denom-EXM104"
      },
      "period": {
        "start": "2019-08-21T00:00:00-06:00",
        "end": "2019-12-19T08:15:00-07:00"
      },
      "diagnosis": [ {
        "condition": {
          "reference": "Condition/denom-EXM104-1"
        },
        "use": {
          "coding": [ {
            "system": "http://hl7.org/fhir/diagnosis-role",
            "code": "billing",
            "display": "Billing"
          } ]
        },
        "rank": 1
      } ]
    },
    "request": {
      "method": "PUT",
      "url": "Encounter/denom-EXM104-2"
    }
  }, {
    "resource": {
      "resourceType": "Patient",
      "id": "Patient-numer-EXM104",
      "meta": {
        "profile": [ "http://hl7.org/fhir/us/core/StructureDefinition/us-core-patient" ]
      },
      "extension": [ {
        "url": "http://hl7.org/fhir/us/core/StructureDefinition/us-core-race",
        "extension": [ {
          "url": "ombCategory",
          "valueCoding": {
            "system": "urn:oid:2.16.840.1.113883.6.238",
            "code": "2106-3",
            "display": "White"
          }
        } ]
      }, {
        "url": "http://hl7.org/fhir/us/core/StructureDefinition/us-core-ethnicity",
        "extension": [ {
          "url": "ombCategory",
          "valueCoding": {
            "system": "urn:oid:2.16.840.1.113883.6.238",
            "code": "2186-5",
            "display": "Not Hispanic or Latino"
          }
        } ]
      } ],
      "identifier": [ {
        "use": "usual",
        "type": {
          "coding": [ {
            "system": "http://terminology.hl7.org/CodeSystem/v2-0203",
            "code": "MR",
            "display": "Medical Record Number"
          } ]
        },
        "system": "http://hospital.smarthealthit.org",
        "value": "9999999911"
      } ],
      "name": [ {
        "family": "Jones",
        "given": [ "Louise" ]
      } ],
      "gender": "female",
      "birthDate": "1971-11-21"
    },
    "request": {
      "method": "PUT",
      "url": "Patient/Patient-numer-EXM104"
    }
  }, {
    "resource": {
      "resourceType": "Condition",
      "id": "denom-EXM104-1",
      "meta": {
        "profile": [ "http://hl7.org/fhir/us/core/StructureDefinition/us-core-condition" ]
      },
      "verificationStatus": {
        "coding": [ {
          "system": "http://terminology.hl7.org/CodeSystem/condition-ver-status",
          "code": "confirmed",
          "display": "Confirmed"
        } ]
      },
      "category": [ {
        "coding": [ {
          "system": "http://terminology.hl7.org/CodeSystem/condition-category",
          "code": "encounter-diagnosis",
          "display": "Encounter Diagnosis"
        } ]
      } ],
      "code": {
        "coding": [ {
          "system": "http://snomed.info/sct",
          "code": "116288000",
          "display": "Paralytic stroke (disorder)"
        } ]
      },
      "subject": {
        "reference": "Patient/denom-EXM104"
      }
    },
    "request": {
      "method": "PUT",
      "url": "Condition/denom-EXM104-1"
    }
  }, {
    "resource": {
      "resourceType": "ValueSet",
      "id": "2.16.840.1.114222.4.11.836",
      "url": "http://cts.nlm.nih.gov/fhir/ValueSet/2.16.840.1.114222.4.11.836",
      "identifier": [ {
        "system": "urn:ietf:rfc:3986",
        "value": "2.16.840.1.114222.4.11.836"
      } ],
      "version": "20121025",
      "name": "Race",
      "title": "Race",
      "status": "active",
      "experimental": false,
      "publisher": "NLM",
      "expansion": {
        "identifier": "20210506",
        "timestamp": "2021-07-19T17:22:06-06:00",
        "contains": [ {
          "system": "http://terminology.hl7.org/CodeSystem/PHRaceAndEthnicityCDC",
          "version": "1.2",
          "code": "1002-5",
          "display": "American Indian or Alaska Native"
        }, {
          "system": "http://terminology.hl7.org/CodeSystem/PHRaceAndEthnicityCDC",
          "version": "1.2",
          "code": "2028-9",
          "display": "Asian"
        }, {
          "system": "http://terminology.hl7.org/CodeSystem/PHRaceAndEthnicityCDC",
          "version": "1.2",
          "code": "2054-5",
          "display": "Black or African American"
        }, {
          "system": "http://terminology.hl7.org/CodeSystem/PHRaceAndEthnicityCDC",
          "version": "1.2",
          "code": "2076-8",
          "display": "Native Hawaiian or Other Pacific Islander"
        }, {
          "system": "http://terminology.hl7.org/CodeSystem/PHRaceAndEthnicityCDC",
          "version": "1.2",
          "code": "2106-3",
          "display": "White"
        }, {
          "system": "http://terminology.hl7.org/CodeSystem/PHRaceAndEthnicityCDC",
          "version": "1.2",
          "code": "2131-1",
          "display": "Other Race"
        } ]
      }
    },
    "request": {
      "method": "PUT",
      "url": "ValueSet/2.16.840.1.114222.4.11.836"
    }
  }, {
    "resource": {
      "resourceType": "Condition",
      "id": "no-ip-EXM104-1",
      "meta": {
        "profile": [ "http://hl7.org/fhir/us/core/StructureDefinition/us-core-condition" ]
      },
      "verificationStatus": {
        "coding": [ {
          "system": "http://terminology.hl7.org/CodeSystem/condition-ver-status",
          "code": "confirmed",
          "display": "Confirmed"
        } ]
      },
      "category": [ {
        "coding": [ {
          "system": "http://terminology.hl7.org/CodeSystem/condition-category",
          "code": "encounter-diagnosis",
          "display": "Encounter Diagnosis"
        } ]
      } ],
      "code": {
        "coding": [ {
          "system": "http://snomed.info/sct",
          "code": "116288000",
          "display": "Paralytic stroke (disorder)"
        } ]
      },
      "subject": {
        "reference": "Patient/no-ip-EXM104"
      }
    },
    "request": {
      "method": "PUT",
      "url": "Condition/no-ip-EXM104-1"
    }
  }, {
    "resource": {
      "resourceType": "Encounter",
      "id": "no-ip-EXM104-2",
      "meta": {
        "profile": [ "http://hl7.org/fhir/us/core/StructureDefinition/us-core-encounter" ]
      },
      "status": "finished",
      "class": {
        "system": "http://terminology.hl7.org/CodeSystem/v3-ActCode",
        "code": "IMP",
        "display": "inpatient encounter"
      },
      "type": [ {
        "coding": [ {
          "system": "http://snomed.info/sct",
          "code": "32485007",
          "display": "Hospital admission (procedure)"
        } ]
      } ],
      "subject": {
        "reference": "Patient/no-ip-EXM104"
      },
      "period": {
        "start": "2019-08-21T00:00:00-06:00",
        "end": "2019-12-19T08:15:00-07:00"
      },
      "diagnosis": [ {
        "condition": {
          "reference": "Condition/no-ip-EXM104-1"
        },
        "use": {
          "coding": [ {
            "system": "http://hl7.org/fhir/diagnosis-role",
            "code": "billing",
            "display": "Billing"
          } ]
        },
        "rank": 1
      } ]
    },
    "request": {
      "method": "PUT",
      "url": "Encounter/no-ip-EXM104-2"
    }
  }, {
    "resource": {
      "resourceType": "ValueSet",
      "id": "2.16.840.1.113762.1.4.1110.39",
      "meta": {
        "profile": [ "http://hl7.org/fhir/uv/cpg/StructureDefinition/cpg-shareablevalueset", "http://hl7.org/fhir/uv/cpg/StructureDefinition/cpg-publishablevalueset", "http://hl7.org/fhir/uv/cpg/StructureDefinition/cpg-executablevalueset" ]
      },
      "extension": [ {
        "url": "http://hl7.org/fhir/uv/cpg/StructureDefinition/cpg-knowledgeCapability",
        "valueCode": "shareable"
      }, {
        "url": "http://hl7.org/fhir/uv/cpg/StructureDefinition/cpg-knowledgeRepresentationLevel",
        "valueCode": "narrative"
      }, {
        "url": "http://hl7.org/fhir/uv/cpg/StructureDefinition/cpg-knowledgeCapability",
        "valueCode": "publishable"
      }, {
        "url": "http://fhir.org/guides/cdc/opioid-cds/StructureDefinition/cdc-valueset-inclusion",
        "valueString": "Includes concepts that represent a medication for ticagrelor therapy."
      }, {
        "url": "http://fhir.org/guides/cdc/opioid-cds/StructureDefinition/cdc-valueset-exclusion",
        "valueString": "No exclusions."
      }, {
        "url": "http://hl7.org/fhir/uv/cpg/StructureDefinition/cpg-knowledgeCapability",
        "valueCode": "executable"
      }, {
        "url": "http://hl7.org/fhir/uv/cpg/StructureDefinition/cpg-knowledgeRepresentationLevel",
        "valueCode": "executable"
      }, {
        "url": "http://hl7.org/fhir/uv/cpg/StructureDefinition/cpg-usageWarning",
        "valueString": "This value set contains a point-in-time expansion enumerating the codes that meet the value set intent. As new versions of the code systems used by the value set are released, the contents of this expansion will need to be updated to incorporate newly defined codes that meet the value set intent. Before, and periodically during production use, the value set expansion contents SHOULD be updated. The value set expansion specifies the timestamp when the expansion was produced, SHOULD contain the parameters used for the expansion, and SHALL contain the codes that are obtained by evaluating the value set definition. If this is ONLY an executable value set, a distributable definition of the value set must be obtained to compute the updated expansion."
      } ],
      "url": "http://cts.nlm.nih.gov/fhir/ValueSet/2.16.840.1.113762.1.4.1110.39",
      "version": "20210220",
      "title": "Ticagrelor Therapy",
      "status": "active",
      "experimental": false,
      "publisher": "The Joint Commission",
      "description": "The purpose of this value set is to represent concepts for the medication of ticagrelor in therapy used to reduce stroke mortality and morbidity.",
      "purpose": "This value set may use a model element related to Medication.",
      "expansion": {
        "timestamp": "2021-08-26T13:43:23-06:00",
        "contains": [ {
          "system": "http://www.nlm.nih.gov/research/umls/rxnorm",
          "version": "2021-07",
          "code": "1116635",
          "display": "ticagrelor 90 MG Oral Tablet"
        }, {
          "system": "http://www.nlm.nih.gov/research/umls/rxnorm",
          "version": "2021-07",
          "code": "1666332",
          "display": "ticagrelor 60 MG Oral Tablet"
        } ]
      }
    },
    "request": {
      "method": "PUT",
      "url": "ValueSet/2.16.840.1.113762.1.4.1110.39"
    }
  }, {
    "resource": {
      "resourceType": "MedicationRequest",
      "id": "MedicationRequest-denex-EXM104",
      "status": "completed",
      "intent": "order",
      "category": [ {
        "coding": [ {
          "system": "http://terminology.hl7.org/CodeSystem/medicationrequest-category",
          "code": "discharge",
          "display": "Discharge"
        } ]
      } ],
      "doNotPerform": true,
      "medicationCodeableConcept": {
        "coding": [ {
          "system": "http://www.nlm.nih.gov/research/umls/rxnorm",
          "code": "1037045",
          "display": "dabigatran etexilate 150 MG Oral Capsule"
        } ]
      },
      "subject": {
        "reference": "Patient/Patient-denex-EXM104"
      },
      "authoredOn": "2019-12-17T08:00:00",
      "reasonCode": [ {
        "coding": [ {
          "system": "http://snomed.info/sct",
          "code": "105480006",
          "display": "Refusal of treatment by patient (situation)"
        } ]
      } ]
    },
    "request": {
      "method": "PUT",
      "url": "MedicationRequest/MedicationRequest-denex-EXM104"
    }
  }, {
    "resource": {
      "resourceType": "MedicationRequest",
      "id": "no-ip-EXM104-5",
      "status": "completed",
      "intent": "order",
      "category": [ {
        "coding": [ {
          "system": "http://terminology.hl7.org/CodeSystem/medicationrequest-category",
          "code": "discharge",
          "display": "Discharge"
        } ]
      } ],
      "medicationCodeableConcept": {
        "coding": [ {
          "system": "http://www.nlm.nih.gov/research/umls/rxnorm",
          "code": "1037045",
          "display": "dabigatran etexilate 150 MG Oral Capsule"
        } ]
      },
      "subject": {
        "reference": "Patient/no-ip-EXM104"
      },
      "authoredOn": "2019-12-17T08:00:00"
    },
    "request": {
      "method": "PUT",
      "url": "MedicationRequest/no-ip-EXM104-5"
    }
  }, {
    "resource": {
      "resourceType": "MeasureReport",
      "id": "measurereport-numer-EXM104",
      "contained": [ {
        "resourceType": "Bundle",
        "id": "74474743-2e7e-4be4-8477-1ae78c14ab16",
        "type": "collection",
        "entry": [ {
          "fullUrl": "Condition/numer-EXM104-1",
          "resource": {
            "resourceType": "Condition",
            "id": "numer-EXM104-1",
            "meta": {
              "profile": [ "http://hl7.org/fhir/us/core/StructureDefinition/us-core-condition" ]
            },
            "verificationStatus": {
              "coding": [ {
                "system": "http://terminology.hl7.org/CodeSystem/condition-ver-status",
                "code": "confirmed",
                "display": "Confirmed"
              } ]
            },
            "category": [ {
              "coding": [ {
                "system": "http://terminology.hl7.org/CodeSystem/condition-category",
                "code": "encounter-diagnosis",
                "display": "Encounter Diagnosis"
              } ]
            } ],
            "code": {
              "coding": [ {
                "system": "http://snomed.info/sct",
                "code": "116288000",
                "display": "Paralytic stroke (disorder)"
              } ]
            },
            "subject": {
              "reference": "Patient/numer-EXM104"
            }
          }
        }, {
          "fullUrl": "Patient/numer-EXM104",
          "resource": {
            "resourceType": "Patient",
            "id": "numer-EXM104",
            "meta": {
              "profile": [ "http://hl7.org/fhir/us/core/StructureDefinition/us-core-patient" ]
            },
            "extension": [ {
              "url": "http://hl7.org/fhir/us/core/StructureDefinition/us-core-race",
              "extension": [ {
                "url": "ombCategory",
                "valueCoding": {
                  "system": "urn:oid:2.16.840.1.113883.6.238",
                  "code": "2106-3",
                  "display": "White"
                }
              } ]
            }, {
              "url": "http://hl7.org/fhir/us/core/StructureDefinition/us-core-ethnicity",
              "extension": [ {
                "url": "ombCategory",
                "valueCoding": {
                  "system": "urn:oid:2.16.840.1.113883.6.238",
                  "code": "2186-5",
                  "display": "Not Hispanic or Latino"
                }
              } ]
            } ],
            "identifier": [ {
              "use": "usual",
              "type": {
                "coding": [ {
                  "system": "http://terminology.hl7.org/CodeSystem/v2-0203",
                  "code": "MR",
                  "display": "Medical Record Number"
                } ]
              },
              "system": "http://hospital.smarthealthit.org",
              "value": "9999999911"
            } ],
            "name": [ {
              "family": "Jones",
              "given": [ "Louise" ]
            } ],
            "gender": "female",
            "birthDate": "1971-11-21"
          }
        }, {
          "fullUrl": "963f6f2e-212c-4767-98af-ecad2d994491",
          "resource": {
            "resourceType": "List",
            "id": "963f6f2e-212c-4767-98af-ecad2d994491",
            "title": "numerator",
            "entry": [ {
              "item": {
                "reference": "numer-EXM104-1"
              }
            }, {
              "item": {
                "reference": "numer-EXM104"
              }
            }, {
              "item": {
                "reference": "numer-EXM104-5"
              }
            }, {
              "item": {
                "reference": "numer-EXM104-2"
              }
            } ]
          }
        }, {
          "fullUrl": "4f918c4c-8499-4089-be60-0d873a6da0a0",
          "resource": {
            "resourceType": "List",
            "id": "4f918c4c-8499-4089-be60-0d873a6da0a0",
            "title": "denominator",
            "entry": [ {
              "item": {
                "reference": "numer-EXM104-1"
              }
            }, {
              "item": {
                "reference": "numer-EXM104"
              }
            }, {
              "item": {
                "reference": "numer-EXM104-2"
              }
            } ]
          }
        }, {
          "fullUrl": "MedicationRequest/numer-EXM104-5",
          "resource": {
            "resourceType": "MedicationRequest",
            "id": "numer-EXM104-5",
            "meta": { },
            "status": "completed",
            "intent": "order",
            "category": [ {
              "coding": [ {
                "system": "http://terminology.hl7.org/CodeSystem/medicationrequest-category",
                "code": "discharge",
                "display": "Discharge"
              } ]
            } ],
            "medicationCodeableConcept": {
              "coding": [ {
                "system": "http://www.nlm.nih.gov/research/umls/rxnorm",
                "code": "1037045",
                "display": "dabigatran etexilate 150 MG Oral Capsule"
              } ]
            },
            "subject": {
              "reference": "Patient/numer-EXM104"
            },
            "authoredOn": "2019-12-17T08:00:00"
          }
        }, {
          "fullUrl": "Encounter/numer-EXM104-2",
          "resource": {
            "resourceType": "Encounter",
            "id": "numer-EXM104-2",
            "meta": {
              "profile": [ "http://hl7.org/fhir/us/core/StructureDefinition/us-core-encounter" ]
            },
            "status": "finished",
            "class": {
              "system": "http://terminology.hl7.org/CodeSystem/v3-ActCode",
              "code": "IMP",
              "display": "inpatient encounter"
            },
            "type": [ {
              "coding": [ {
                "system": "http://snomed.info/sct",
                "code": "32485007",
                "display": "Hospital admission (procedure)"
              } ]
            } ],
            "subject": {
              "reference": "Patient/numer-EXM104"
            },
            "period": {
              "start": "2019-08-21T00:00:00-06:00",
              "end": "2019-12-19T08:15:00-07:00"
            },
            "diagnosis": [ {
              "condition": {
                "reference": "Condition/numer-EXM104-1"
              },
              "use": {
                "coding": [ {
                  "system": "http://hl7.org/fhir/diagnosis-role",
                  "code": "billing",
                  "display": "Billing"
                } ]
              },
              "rank": 1
            } ]
          }
        }, {
          "fullUrl": "689ed734-68bb-4379-96b9-28fd90e873a2",
          "resource": {
            "resourceType": "List",
            "id": "689ed734-68bb-4379-96b9-28fd90e873a2",
            "title": "initial-population",
            "entry": [ {
              "item": {
                "reference": "numer-EXM104-1"
              }
            }, {
              "item": {
                "reference": "numer-EXM104"
              }
            }, {
              "item": {
                "reference": "numer-EXM104-2"
              }
            } ]
          }
        } ]
      } ],
      "status": "complete",
      "type": "individual",
      "measure": "Measure/measure-EXM104-8.2.000",
      "subject": {
        "reference": "Patient/numer-EXM104"
      },
      "period": {
        "start": "2018-12-31T17:00:00-07:00",
        "end": "2019-12-30T17:00:00-07:00"
      },
      "group": [ {
        "id": "group-1",
        "population": [ {
          "code": {
            "coding": [ {
              "system": "http://terminology.hl7.org/CodeSystem/measure-population",
              "code": "initial-population",
              "display": "Initial Population"
            } ]
          },
          "count": 1
        }, {
          "code": {
            "coding": [ {
              "system": "http://terminology.hl7.org/CodeSystem/measure-population",
              "code": "numerator",
              "display": "Numerator"
            } ]
          },
          "count": 1
        }, {
          "code": {
            "coding": [ {
              "system": "http://terminology.hl7.org/CodeSystem/measure-population",
              "code": "denominator",
              "display": "Denominator"
            } ]
          },
          "count": 1
        }, {
          "code": {
            "coding": [ {
              "system": "http://terminology.hl7.org/CodeSystem/measure-population",
              "code": "denominator-exclusion",
              "display": "Denominator Exclusion"
            } ]
          },
          "count": 0
        } ],
        "measureScore": {
          "value": 1.0
        }
      } ],
      "evaluatedResource": [ {
        "reference": "#74474743-2e7e-4be4-8477-1ae78c14ab16"
      } ]
    },
    "request": {
      "method": "PUT",
      "url": "MeasureReport/measurereport-numer-EXM104"
    }
  }, {
    "resource": {
      "resourceType": "MedicationRequest",
      "id": "numer-EXM104-5",
      "status": "completed",
      "intent": "order",
      "category": [ {
        "coding": [ {
          "system": "http://terminology.hl7.org/CodeSystem/medicationrequest-category",
          "code": "discharge",
          "display": "Discharge"
        } ]
      } ],
      "medicationCodeableConcept": {
        "coding": [ {
          "system": "http://www.nlm.nih.gov/research/umls/rxnorm",
          "code": "1037045",
          "display": "dabigatran etexilate 150 MG Oral Capsule"
        } ]
      },
      "subject": {
        "reference": "Patient/numer-EXM104"
      },
      "authoredOn": "2019-12-17T08:00:00"
    },
    "request": {
      "method": "PUT",
      "url": "MedicationRequest/numer-EXM104-5"
    }
  }, {
    "resource": {
      "resourceType": "Patient",
      "id": "Patient-denom-EXM104",
      "meta": {
        "profile": [ "http://hl7.org/fhir/us/core/StructureDefinition/us-core-patient" ]
      },
      "extension": [ {
        "url": "http://hl7.org/fhir/us/core/StructureDefinition/us-core-race",
        "extension": [ {
          "url": "ombCategory",
          "valueCoding": {
            "system": "urn:oid:2.16.840.1.113883.6.238",
            "code": "2054-5",
            "display": "Black or African American"
          }
        } ]
      }, {
        "url": "http://hl7.org/fhir/us/core/StructureDefinition/us-core-ethnicity",
        "extension": [ {
          "url": "ombCategory",
          "valueCoding": {
            "system": "urn:oid:2.16.840.1.113883.6.238",
            "code": "2135-2",
            "display": "Hispanic or Latino"
          }
        } ]
      } ],
      "identifier": [ {
        "use": "usual",
        "type": {
          "coding": [ {
            "system": "http://terminology.hl7.org/CodeSystem/v2-0203",
            "code": "MR",
            "display": "Medical Record Number"
          } ]
        },
        "system": "http://hospital.smarthealthit.org",
        "value": "9999999910"
      } ],
      "name": [ {
        "family": "Jones",
        "given": [ "Rick" ]
      } ],
      "gender": "male",
      "birthDate": "1955-11-05"
    },
    "request": {
      "method": "PUT",
      "url": "Patient/Patient-denom-EXM104"
    }
  }, {
    "resource": {
      "resourceType": "Condition",
      "id": "numer-EXM104-1",
      "meta": {
        "profile": [ "http://hl7.org/fhir/us/core/StructureDefinition/us-core-condition" ]
      },
      "verificationStatus": {
        "coding": [ {
          "system": "http://terminology.hl7.org/CodeSystem/condition-ver-status",
          "code": "confirmed",
          "display": "Confirmed"
        } ]
      },
      "category": [ {
        "coding": [ {
          "system": "http://terminology.hl7.org/CodeSystem/condition-category",
          "code": "encounter-diagnosis",
          "display": "Encounter Diagnosis"
        } ]
      } ],
      "code": {
        "coding": [ {
          "system": "http://snomed.info/sct",
          "code": "116288000",
          "display": "Paralytic stroke (disorder)"
        } ]
      },
      "subject": {
        "reference": "Patient/numer-EXM104"
      }
    },
    "request": {
      "method": "PUT",
      "url": "Condition/numer-EXM104-1"
    }
  }, {
    "resource": {
      "resourceType": "ValueSet",
      "id": "2.16.840.1.113883.3.117.1.7.1.87",
      "url": "http://cts.nlm.nih.gov/fhir/ValueSet/2.16.840.1.113883.3.117.1.7.1.87",
      "identifier": [ {
        "system": "urn:ietf:rfc:3986",
        "value": "2.16.840.1.113883.3.117.1.7.1.87"
      } ],
      "version": "20210220",
      "name": "DischargeToAcuteCareFacility",
      "title": "Discharge To Acute Care Facility",
      "status": "active",
      "experimental": false,
      "publisher": "NLM",
      "expansion": {
        "identifier": "20210506",
        "timestamp": "2021-07-19T17:22:05-06:00",
        "contains": [ {
          "system": "http://snomed.info/sct",
          "version": "2020-09",
          "code": "306701001",
          "display": "Discharge to community hospital (procedure)"
        }, {
          "system": "http://snomed.info/sct",
          "version": "2020-09",
          "code": "306703003",
          "display": "Discharge to tertiary referral hospital (procedure)"
        }, {
          "system": "http://snomed.info/sct",
          "version": "2020-09",
          "code": "434781000124105",
          "display": "Discharge to acute care hospital (procedure)"
        } ]
      }
    },
    "request": {
      "method": "PUT",
      "url": "ValueSet/2.16.840.1.113883.3.117.1.7.1.87"
    }
  }, {
    "resource": {
      "resourceType": "Encounter",
      "id": "numer-EXM104-2",
      "meta": {
        "profile": [ "http://hl7.org/fhir/us/core/StructureDefinition/us-core-encounter" ]
      },
      "status": "finished",
      "class": {
        "system": "http://terminology.hl7.org/CodeSystem/v3-ActCode",
        "code": "IMP",
        "display": "inpatient encounter"
      },
      "type": [ {
        "coding": [ {
          "system": "http://snomed.info/sct",
          "code": "32485007",
          "display": "Hospital admission (procedure)"
        } ]
      } ],
      "subject": {
        "reference": "Patient/numer-EXM104"
      },
      "period": {
        "start": "2019-08-21T00:00:00-06:00",
        "end": "2019-12-19T08:15:00-07:00"
      },
      "diagnosis": [ {
        "condition": {
          "reference": "Condition/numer-EXM104-1"
        },
        "use": {
          "coding": [ {
            "system": "http://hl7.org/fhir/diagnosis-role",
            "code": "billing",
            "display": "Billing"
          } ]
        },
        "rank": 1
      } ]
    },
    "request": {
      "method": "PUT",
      "url": "Encounter/numer-EXM104-2"
    }
  }, {
    "resource": {
      "resourceType": "Patient",
      "id": "no-ip-EXM104",
      "meta": {
        "profile": [ "http://hl7.org/fhir/us/core/StructureDefinition/us-core-patient" ]
      },
      "extension": [ {
        "url": "http://hl7.org/fhir/us/core/StructureDefinition/us-core-race",
        "extension": [ {
          "url": "ombCategory",
          "valueCoding": {
            "system": "urn:oid:2.16.840.1.113883.6.238",
            "code": "2106-3",
            "display": "White"
          }
        } ]
      }, {
        "url": "http://hl7.org/fhir/us/core/StructureDefinition/us-core-ethnicity",
        "extension": [ {
          "url": "ombCategory",
          "valueCoding": {
            "system": "urn:oid:2.16.840.1.113883.6.238",
            "code": "2186-5",
            "display": "Not Hispanic or Latino"
          }
        } ]
      } ],
      "identifier": [ {
        "use": "usual",
        "type": {
          "coding": [ {
            "system": "http://terminology.hl7.org/CodeSystem/v2-0203",
            "code": "MR",
            "display": "Medical Record Number"
          } ]
        },
        "system": "http://hospital.smarthealthit.org",
        "value": "9999999911"
      } ],
      "name": [ {
        "family": "Jones",
        "given": [ "Louise" ]
      } ],
      "gender": "female",
      "birthDate": "2015-11-21"
    },
    "request": {
      "method": "PUT",
      "url": "Patient/no-ip-EXM104"
    }
  }, {
    "resource": {
      "resourceType": "Condition",
      "id": "Condition-numer-EXM104",
      "meta": {
        "profile": [ "http://hl7.org/fhir/us/core/StructureDefinition/us-core-condition" ]
      },
      "verificationStatus": {
        "coding": [ {
          "system": "http://terminology.hl7.org/CodeSystem/condition-ver-status",
          "code": "confirmed",
          "display": "Confirmed"
        } ]
      },
      "category": [ {
        "coding": [ {
          "system": "http://terminology.hl7.org/CodeSystem/condition-category",
          "code": "encounter-diagnosis",
          "display": "Encounter Diagnosis"
        } ]
      } ],
      "code": {
        "coding": [ {
          "system": "http://snomed.info/sct",
          "code": "116288000",
          "display": "Paralytic stroke (disorder)"
        } ]
      },
      "subject": {
        "reference": "Patient/Patient-numer-EXM104"
      }
    },
    "request": {
      "method": "PUT",
      "url": "Condition/Condition-numer-EXM104"
    }
  }, {
    "resource": {
      "resourceType": "ValueSet",
      "id": "2.16.840.1.113762.1.4.1147.197",
      "url": "http://cts.nlm.nih.gov/fhir/ValueSet/2.16.840.1.113762.1.4.1147.197",
      "version": "20220415",
      "name": "Present on Admission or Clinically Undetermined",
      "status": "active",
      "date": "2022-04-15T01:02:23-04:00",
      "publisher": "American Institutes for Research Steward",
      "compose": {
        "include": [ {
          "system": "https://www.cms.gov/Medicare/Medicare-Fee-for-Service-Payment/HospitalAcqCond/Coding",
          "version": "2021",
          "concept": [ {
            "code": "W",
            "display": "Clinically undetermined"
          }, {
            "code": "Y",
            "display": "Diagnosis was present at time of inpatient admission"
          } ]
        } ]
      }
    },
    "request": {
      "method": "PUT",
      "url": "ValueSet/2.16.840.1.113762.1.4.1147.197"
    }
  }, {
    "resource": {
      "resourceType": "ValueSet",
      "id": "2.16.840.1.113883.3.117.1.7.1.473",
      "url": "http://cts.nlm.nih.gov/fhir/ValueSet/2.16.840.1.113883.3.117.1.7.1.473",
      "identifier": [ {
        "system": "urn:ietf:rfc:3986",
        "value": "2.16.840.1.113883.3.117.1.7.1.473"
      } ],
      "version": "20210220",
      "name": "MedicalReason",
      "title": "Medical Reason",
      "status": "active",
      "experimental": false,
      "publisher": "NLM",
      "expansion": {
        "identifier": "20210506",
        "timestamp": "2021-07-19T17:22:06-06:00",
        "contains": [ {
          "system": "http://snomed.info/sct",
          "version": "2020-09",
          "code": "183932001",
          "display": "Procedure contraindicated (situation)"
        }, {
          "system": "http://snomed.info/sct",
          "version": "2020-09",
          "code": "183964008",
          "display": "Treatment not indicated (situation)"
        }, {
          "system": "http://snomed.info/sct",
          "version": "2020-09",
          "code": "183966005",
          "display": "Drug treatment not indicated (situation)"
        }, {
          "system": "http://snomed.info/sct",
          "version": "2020-09",
          "code": "266721009",
          "display": "Absent response to treatment (situation)"
        }, {
          "system": "http://snomed.info/sct",
          "version": "2020-09",
          "code": "31438003",
          "display": "Drug resistance (disorder)"
        }, {
          "system": "http://snomed.info/sct",
          "version": "2020-09",
          "code": "35688006",
          "display": "Complication of medical care (disorder)"
        }, {
          "system": "http://snomed.info/sct",
          "version": "2020-09",
          "code": "397745006",
          "display": "Medical contraindication (finding)"
        }, {
          "system": "http://snomed.info/sct",
          "version": "2020-09",
          "code": "407563006",
          "display": "Treatment not tolerated (situation)"
        }, {
          "system": "http://snomed.info/sct",
          "version": "2020-09",
          "code": "410529002",
          "display": "Not needed (qualifier value)"
        }, {
          "system": "http://snomed.info/sct",
          "version": "2020-09",
          "code": "410534003",
          "display": "Not indicated (qualifier value)"
        }, {
          "system": "http://snomed.info/sct",
          "version": "2020-09",
          "code": "410536001",
          "display": "Contraindicated (qualifier value)"
        }, {
          "system": "http://snomed.info/sct",
          "version": "2020-09",
          "code": "416098002",
          "display": "Allergy to drug (finding)"
        }, {
          "system": "http://snomed.info/sct",
          "version": "2020-09",
          "code": "419511003",
          "display": "Propensity to adverse reactions to drug (finding)"
        }, {
          "system": "http://snomed.info/sct",
          "version": "2020-09",
          "code": "428024001",
          "display": "Clinical trial participant (person)"
        }, {
          "system": "http://snomed.info/sct",
          "version": "2020-09",
          "code": "428119001",
          "display": "Procedure not indicated (situation)"
        }, {
          "system": "http://snomed.info/sct",
          "version": "2020-09",
          "code": "59037007",
          "display": "Intolerance to drug (finding)"
        }, {
          "system": "http://snomed.info/sct",
          "version": "2020-09",
          "code": "62014003",
          "display": "Adverse reaction caused by drug (disorder)"
        }, {
          "system": "http://snomed.info/sct",
          "version": "2020-09",
          "code": "79899007",
          "display": "Drug interaction (finding)"
        } ]
      }
    },
    "request": {
      "method": "PUT",
      "url": "ValueSet/2.16.840.1.113883.3.117.1.7.1.473"
    }
  }, {
    "resource": {
      "resourceType": "Condition",
      "id": "Condition-denomexcl-EXM104",
      "meta": {
        "profile": [ "http://hl7.org/fhir/us/core/StructureDefinition/us-core-condition" ]
      },
      "verificationStatus": {
        "coding": [ {
          "system": "http://terminology.hl7.org/CodeSystem/condition-ver-status",
          "code": "confirmed",
          "display": "Confirmed"
        } ]
      },
      "category": [ {
        "coding": [ {
          "system": "http://terminology.hl7.org/CodeSystem/condition-category",
          "code": "encounter-diagnosis",
          "display": "Encounter Diagnosis"
        } ]
      } ],
      "code": {
        "coding": [ {
          "system": "http://snomed.info/sct",
          "code": "116288000",
          "display": "Paralytic stroke (disorder)"
        } ]
      },
      "subject": {
        "reference": "Patient/Patient-denomexcl-EXM104"
      }
    },
    "request": {
      "method": "PUT",
      "url": "Condition/Condition-denomexcl-EXM104"
    }
  }, {
    "resource": {
      "resourceType": "ValueSet",
      "id": "2.16.840.1.113883.3.117.1.7.1.292",
      "url": "http://cts.nlm.nih.gov/fhir/ValueSet/2.16.840.1.113883.3.117.1.7.1.292",
      "identifier": [ {
        "system": "urn:ietf:rfc:3986",
        "value": "2.16.840.1.113883.3.117.1.7.1.292"
      } ],
      "version": "20210220",
      "name": "EmergencyDepartmentVisit",
      "title": "Emergency Department Visit",
      "status": "active",
      "experimental": false,
      "publisher": "NLM",
      "expansion": {
        "identifier": "20210506",
        "timestamp": "2021-07-19T17:22:05-06:00",
        "contains": [ {
          "system": "http://snomed.info/sct",
          "version": "2020-09",
          "code": "4525004",
          "display": "Emergency department patient visit (procedure)"
        } ]
      }
    },
    "request": {
      "method": "PUT",
      "url": "ValueSet/2.16.840.1.113883.3.117.1.7.1.292"
    }
  }, {
    "resource": {
      "resourceType": "ValueSet",
      "id": "2.16.840.1.113762.1.4.1111.143",
      "url": "http://cts.nlm.nih.gov/fhir/ValueSet/2.16.840.1.113762.1.4.1111.143",
      "identifier": [ {
        "system": "urn:ietf:rfc:3986",
        "value": "2.16.840.1.113762.1.4.1111.143"
      } ],
      "version": "20210220",
      "name": "ObservationServices",
      "title": "Observation Services",
      "status": "active",
      "experimental": false,
      "publisher": "NLM",
      "expansion": {
        "identifier": "20210506",
        "timestamp": "2021-07-19T17:22:06-06:00",
        "contains": [ {
          "system": "http://snomed.info/sct",
          "version": "2020-09",
          "code": "448951000124107",
          "display": "Admission to observation unit (procedure)"
        } ]
      }
    },
    "request": {
      "method": "PUT",
      "url": "ValueSet/2.16.840.1.113762.1.4.1111.143"
    }
  }, {
    "resource": {
      "resourceType": "Library",
      "id": "SupplementalDataElementsFHIR4",
      "meta": {
        "versionId": "2",
        "lastUpdated": "2021-01-28T16:14:25.000-07:00",
        "source": "#UhjjoJ6F6I9IyV6V",
        "profile": [ "http://hl7.org/fhir/us/cqfmeasures/StructureDefinition/computable-library-cqfm" ]
      },
      "language": "en",
      "extension": [ {
        "url": "http://hl7.org/fhir/us/cqfmeasures/StructureDefinition/cqfm-softwaresystem",
        "valueReference": {
          "reference": "Device/cqf-tooling"
        }
      } ],
      "url": "http://ecqi.healthit.gov/ecqms/Library/SupplementalDataElementsFHIR4",
      "version": "2.0.000",
      "name": "SupplementalDataElementsFHIR4",
      "title": "Supplemental Data Elements FHIR4",
      "status": "active",
      "experimental": false,
      "type": {
        "coding": [ {
          "system": "http://terminology.hl7.org/CodeSystem/library-type",
          "code": "logic-library"
        } ]
      },
      "date": "2021-01-28T23:14:24+00:00",
      "publisher": "Mathematica",
      "description": "SupplementalDataElementsFHIR4",
      "relatedArtifact": [ {
        "type": "depends-on",
        "display": "FHIR model information",
        "resource": "http://fhir.org/guides/cqf/common/Library/FHIR-ModelInfo|4.0.1"
      }, {
        "type": "depends-on",
        "display": "Library FHIRHelpers",
        "resource": "http://ecqi.healthit.gov/ecqms/Library/FHIRHelpers|4.0.001"
      }, {
        "type": "depends-on",
        "display": "Value set Ethnicity",
        "resource": "http://cts.nlm.nih.gov/fhir/ValueSet/2.16.840.1.114222.4.11.837"
      }, {
        "type": "depends-on",
        "display": "Value set ONC Administrative Sex",
        "resource": "http://cts.nlm.nih.gov/fhir/ValueSet/2.16.840.1.113762.1.4.1"
      }, {
        "type": "depends-on",
        "display": "Value set Payer",
        "resource": "http://cts.nlm.nih.gov/fhir/ValueSet/2.16.840.1.114222.4.11.3591"
      }, {
        "type": "depends-on",
        "display": "Value set Race",
        "resource": "http://cts.nlm.nih.gov/fhir/ValueSet/2.16.840.1.114222.4.11.836"
      } ],
      "parameter": [ {
        "name": "Patient",
        "use": "out",
        "min": 0,
        "max": "1",
        "type": "Patient"
      }, {
        "name": "SDE Ethnicity",
        "use": "out",
        "min": 0,
        "max": "*",
        "type": "Coding"
      }, {
        "name": "SDE Payer",
        "use": "out",
        "min": 0,
        "max": "*",
        "type": "Any"
      }, {
        "name": "SDE Race",
        "use": "out",
        "min": 0,
        "max": "*",
        "type": "Coding"
      }, {
        "name": "SDE Sex",
        "use": "out",
        "min": 0,
        "max": "1",
        "type": "Coding"
      } ],
      "dataRequirement": [ {
        "type": "Patient",
        "profile": [ "http://hl7.org/fhir/StructureDefinition/Patient" ],
        "mustSupport": [ "url", "extension", "value" ]
      }, {
        "type": "Coverage",
        "profile": [ "http://hl7.org/fhir/StructureDefinition/Coverage" ],
        "mustSupport": [ "type", "period" ],
        "codeFilter": [ {
          "path": "type",
          "valueSet": "http://cts.nlm.nih.gov/fhir/ValueSet/2.16.840.1.114222.4.11.3591"
        } ]
      } ],
      "content": [ {
        "contentType": "text/cql",
        "data": ""
      }, {
        "contentType": "application/elm+xml",
        "data": ""
      }, {
        "contentType": "application/elm+json",
        "data": ""
      } ]
    },
    "request": {
      "method": "PUT",
      "url": "Library/SupplementalDataElementsFHIR4"
    }
  }, {
    "resource": {
      "resourceType": "MeasureReport",
      "id": "measurereport-denom-EXM104",
      "contained": [ {
        "resourceType": "Bundle",
        "id": "4e9ea2cf-bdfc-460f-b7a0-49f70201e177",
        "type": "collection",
        "entry": [ {
          "fullUrl": "1a19a371-91b8-4a1d-9bb0-e8a997baa655",
          "resource": {
            "resourceType": "List",
            "id": "1a19a371-91b8-4a1d-9bb0-e8a997baa655",
            "title": "denominator",
            "entry": [ {
              "item": {
                "reference": "denom-EXM104"
              }
            }, {
              "item": {
                "reference": "denom-EXM104-2"
              }
            }, {
              "item": {
                "reference": "denom-EXM104-1"
              }
            } ]
          }
        }, {
          "fullUrl": "Patient/denom-EXM104",
          "resource": {
            "resourceType": "Patient",
            "id": "denom-EXM104",
            "meta": {
              "profile": [ "http://hl7.org/fhir/us/core/StructureDefinition/us-core-patient" ]
            },
            "extension": [ {
              "url": "http://hl7.org/fhir/us/core/StructureDefinition/us-core-race",
              "extension": [ {
                "url": "ombCategory",
                "valueCoding": {
                  "system": "urn:oid:2.16.840.1.113883.6.238",
                  "code": "2054-5",
                  "display": "Black or African American"
                }
              } ]
            }, {
              "url": "http://hl7.org/fhir/us/core/StructureDefinition/us-core-ethnicity",
              "extension": [ {
                "url": "ombCategory",
                "valueCoding": {
                  "system": "urn:oid:2.16.840.1.113883.6.238",
                  "code": "2135-2",
                  "display": "Hispanic or Latino"
                }
              } ]
            } ],
            "identifier": [ {
              "use": "usual",
              "type": {
                "coding": [ {
                  "system": "http://terminology.hl7.org/CodeSystem/v2-0203",
                  "code": "MR",
                  "display": "Medical Record Number"
                } ]
              },
              "system": "http://hospital.smarthealthit.org",
              "value": "9999999910"
            } ],
            "name": [ {
              "family": "Jones",
              "given": [ "Rick" ]
            } ],
            "gender": "male",
            "birthDate": "1955-11-05"
          }
        }, {
          "fullUrl": "c247b95f-44a0-4ba4-af88-29419f6454af",
          "resource": {
            "resourceType": "List",
            "id": "c247b95f-44a0-4ba4-af88-29419f6454af",
            "title": "initial-population",
            "entry": [ {
              "item": {
                "reference": "denom-EXM104"
              }
            }, {
              "item": {
                "reference": "denom-EXM104-2"
              }
            }, {
              "item": {
                "reference": "denom-EXM104-1"
              }
            } ]
          }
        }, {
          "fullUrl": "Encounter/denom-EXM104-2",
          "resource": {
            "resourceType": "Encounter",
            "id": "denom-EXM104-2",
            "meta": {
              "profile": [ "http://hl7.org/fhir/us/core/StructureDefinition/us-core-encounter" ]
            },
            "status": "finished",
            "class": {
              "system": "http://terminology.hl7.org/CodeSystem/v3-ActCode",
              "code": "IMP",
              "display": "inpatient encounter"
            },
            "type": [ {
              "coding": [ {
                "system": "http://snomed.info/sct",
                "code": "32485007",
                "display": "Hospital admission (procedure)"
              } ]
            } ],
            "subject": {
              "reference": "Patient/denom-EXM104"
            },
            "period": {
              "start": "2019-08-21T00:00:00-06:00",
              "end": "2019-12-19T08:15:00-07:00"
            },
            "diagnosis": [ {
              "condition": {
                "reference": "Condition/denom-EXM104-1"
              },
              "use": {
                "coding": [ {
                  "system": "http://hl7.org/fhir/diagnosis-role",
                  "code": "billing",
                  "display": "Billing"
                } ]
              },
              "rank": 1
            } ]
          }
        }, {
          "fullUrl": "0f7a251e-fc83-461c-8a9b-ce07bc2d067d",
          "resource": {
            "resourceType": "List",
            "id": "0f7a251e-fc83-461c-8a9b-ce07bc2d067d",
            "title": "numerator",
            "entry": [ {
              "item": {
                "reference": "denom-EXM104"
              }
            }, {
              "item": {
                "reference": "denom-EXM104-2"
              }
            }, {
              "item": {
                "reference": "denom-EXM104-1"
              }
            } ]
          }
        }, {
          "fullUrl": "Condition/denom-EXM104-1",
          "resource": {
            "resourceType": "Condition",
            "id": "denom-EXM104-1",
            "meta": {
              "profile": [ "http://hl7.org/fhir/us/core/StructureDefinition/us-core-condition" ]
            },
            "verificationStatus": {
              "coding": [ {
                "system": "http://terminology.hl7.org/CodeSystem/condition-ver-status",
                "code": "confirmed",
                "display": "Confirmed"
              } ]
            },
            "category": [ {
              "coding": [ {
                "system": "http://terminology.hl7.org/CodeSystem/condition-category",
                "code": "encounter-diagnosis",
                "display": "Encounter Diagnosis"
              } ]
            } ],
            "code": {
              "coding": [ {
                "system": "http://snomed.info/sct",
                "code": "116288000",
                "display": "Paralytic stroke (disorder)"
              } ]
            },
            "subject": {
              "reference": "Patient/denom-EXM104"
            }
          }
        } ]
      } ],
      "status": "complete",
      "type": "individual",
      "measure": "Measure/measure-EXM104-8.2.000",
      "subject": {
        "reference": "Patient/denom-EXM104"
      },
      "period": {
        "start": "2018-12-31T17:00:00-07:00",
        "end": "2019-12-30T17:00:00-07:00"
      },
      "group": [ {
        "id": "group-1",
        "population": [ {
          "code": {
            "coding": [ {
              "system": "http://terminology.hl7.org/CodeSystem/measure-population",
              "code": "initial-population",
              "display": "Initial Population"
            } ]
          },
          "count": 1
        }, {
          "code": {
            "coding": [ {
              "system": "http://terminology.hl7.org/CodeSystem/measure-population",
              "code": "numerator",
              "display": "Numerator"
            } ]
          },
          "count": 0
        }, {
          "code": {
            "coding": [ {
              "system": "http://terminology.hl7.org/CodeSystem/measure-population",
              "code": "denominator",
              "display": "Denominator"
            } ]
          },
          "count": 1
        }, {
          "code": {
            "coding": [ {
              "system": "http://terminology.hl7.org/CodeSystem/measure-population",
              "code": "denominator-exclusion",
              "display": "Denominator Exclusion"
            } ]
          },
          "count": 0
        } ],
        "measureScore": {
          "value": 0.0
        }
      } ],
      "evaluatedResource": [ {
        "reference": "#4e9ea2cf-bdfc-460f-b7a0-49f70201e177"
      } ]
    },
    "request": {
      "method": "PUT",
      "url": "MeasureReport/measurereport-denom-EXM104"
    }
  }, {
    "resource": {
      "resourceType": "Condition",
      "id": "Condition-denex-EXM104",
      "meta": {
        "profile": [ "http://hl7.org/fhir/us/core/StructureDefinition/us-core-condition" ]
      },
      "verificationStatus": {
        "coding": [ {
          "system": "http://terminology.hl7.org/CodeSystem/condition-ver-status",
          "code": "confirmed",
          "display": "Confirmed"
        } ]
      },
      "category": [ {
        "coding": [ {
          "system": "http://terminology.hl7.org/CodeSystem/condition-category",
          "code": "encounter-diagnosis",
          "display": "Encounter Diagnosis"
        } ]
      } ],
      "code": {
        "coding": [ {
          "system": "http://snomed.info/sct",
          "code": "116288000",
          "display": "Paralytic stroke (disorder)"
        } ]
      },
      "subject": {
        "reference": "Patient/Patient-denex-EXM104"
      }
    },
    "request": {
      "method": "PUT",
      "url": "Condition/Condition-denex-EXM104"
    }
  }, {
    "resource": {
      "resourceType": "ValueSet",
      "id": "2.16.840.1.113883.3.117.1.7.1.247",
      "url": "http://cts.nlm.nih.gov/fhir/ValueSet/2.16.840.1.113883.3.117.1.7.1.247",
      "identifier": [ {
        "system": "urn:ietf:rfc:3986",
        "value": "2.16.840.1.113883.3.117.1.7.1.247"
      } ],
      "version": "20210220",
      "name": "IschemicStroke",
      "title": "Ischemic Stroke",
      "status": "active",
      "experimental": false,
      "publisher": "NLM",
      "expansion": {
        "identifier": "20210506",
        "timestamp": "2021-07-19T17:22:06-06:00",
        "contains": [ {
          "system": "http://hl7.org/fhir/sid/icd-10-cm",
          "version": "2021",
          "code": "I63.00",
          "display": "Cerebral infarction due to thrombosis of unspecified precerebral artery"
        }, {
          "system": "http://hl7.org/fhir/sid/icd-10-cm",
          "version": "2021",
          "code": "I63.011",
          "display": "Cerebral infarction due to thrombosis of right vertebral artery"
        }, {
          "system": "http://hl7.org/fhir/sid/icd-10-cm",
          "version": "2021",
          "code": "I63.012",
          "display": "Cerebral infarction due to thrombosis of left vertebral artery"
        }, {
          "system": "http://hl7.org/fhir/sid/icd-10-cm",
          "version": "2021",
          "code": "I63.013",
          "display": "Cerebral infarction due to thrombosis of bilateral vertebral arteries"
        }, {
          "system": "http://hl7.org/fhir/sid/icd-10-cm",
          "version": "2021",
          "code": "I63.019",
          "display": "Cerebral infarction due to thrombosis of unspecified vertebral artery"
        }, {
          "system": "http://hl7.org/fhir/sid/icd-10-cm",
          "version": "2021",
          "code": "I63.02",
          "display": "Cerebral infarction due to thrombosis of basilar artery"
        }, {
          "system": "http://hl7.org/fhir/sid/icd-10-cm",
          "version": "2021",
          "code": "I63.031",
          "display": "Cerebral infarction due to thrombosis of right carotid artery"
        }, {
          "system": "http://hl7.org/fhir/sid/icd-10-cm",
          "version": "2021",
          "code": "I63.032",
          "display": "Cerebral infarction due to thrombosis of left carotid artery"
        }, {
          "system": "http://hl7.org/fhir/sid/icd-10-cm",
          "version": "2021",
          "code": "I63.033",
          "display": "Cerebral infarction due to thrombosis of bilateral carotid arteries"
        }, {
          "system": "http://hl7.org/fhir/sid/icd-10-cm",
          "version": "2021",
          "code": "I63.039",
          "display": "Cerebral infarction due to thrombosis of unspecified carotid artery"
        }, {
          "system": "http://hl7.org/fhir/sid/icd-10-cm",
          "version": "2021",
          "code": "I63.09",
          "display": "Cerebral infarction due to thrombosis of other precerebral artery"
        }, {
          "system": "http://hl7.org/fhir/sid/icd-10-cm",
          "version": "2021",
          "code": "I63.10",
          "display": "Cerebral infarction due to embolism of unspecified precerebral artery"
        }, {
          "system": "http://hl7.org/fhir/sid/icd-10-cm",
          "version": "2021",
          "code": "I63.111",
          "display": "Cerebral infarction due to embolism of right vertebral artery"
        }, {
          "system": "http://hl7.org/fhir/sid/icd-10-cm",
          "version": "2021",
          "code": "I63.112",
          "display": "Cerebral infarction due to embolism of left vertebral artery"
        }, {
          "system": "http://hl7.org/fhir/sid/icd-10-cm",
          "version": "2021",
          "code": "I63.113",
          "display": "Cerebral infarction due to embolism of bilateral vertebral arteries"
        }, {
          "system": "http://hl7.org/fhir/sid/icd-10-cm",
          "version": "2021",
          "code": "I63.119",
          "display": "Cerebral infarction due to embolism of unspecified vertebral artery"
        }, {
          "system": "http://hl7.org/fhir/sid/icd-10-cm",
          "version": "2021",
          "code": "I63.12",
          "display": "Cerebral infarction due to embolism of basilar artery"
        }, {
          "system": "http://hl7.org/fhir/sid/icd-10-cm",
          "version": "2021",
          "code": "I63.131",
          "display": "Cerebral infarction due to embolism of right carotid artery"
        }, {
          "system": "http://hl7.org/fhir/sid/icd-10-cm",
          "version": "2021",
          "code": "I63.132",
          "display": "Cerebral infarction due to embolism of left carotid artery"
        }, {
          "system": "http://hl7.org/fhir/sid/icd-10-cm",
          "version": "2021",
          "code": "I63.133",
          "display": "Cerebral infarction due to embolism of bilateral carotid arteries"
        }, {
          "system": "http://hl7.org/fhir/sid/icd-10-cm",
          "version": "2021",
          "code": "I63.139",
          "display": "Cerebral infarction due to embolism of unspecified carotid artery"
        }, {
          "system": "http://hl7.org/fhir/sid/icd-10-cm",
          "version": "2021",
          "code": "I63.19",
          "display": "Cerebral infarction due to embolism of other precerebral artery"
        }, {
          "system": "http://hl7.org/fhir/sid/icd-10-cm",
          "version": "2021",
          "code": "I63.20",
          "display": "Cerebral infarction due to unspecified occlusion or stenosis of unspecified precerebral arteries"
        }, {
          "system": "http://hl7.org/fhir/sid/icd-10-cm",
          "version": "2021",
          "code": "I63.211",
          "display": "Cerebral infarction due to unspecified occlusion or stenosis of right vertebral artery"
        }, {
          "system": "http://hl7.org/fhir/sid/icd-10-cm",
          "version": "2021",
          "code": "I63.212",
          "display": "Cerebral infarction due to unspecified occlusion or stenosis of left vertebral artery"
        }, {
          "system": "http://hl7.org/fhir/sid/icd-10-cm",
          "version": "2021",
          "code": "I63.213",
          "display": "Cerebral infarction due to unspecified occlusion or stenosis of bilateral vertebral arteries"
        }, {
          "system": "http://hl7.org/fhir/sid/icd-10-cm",
          "version": "2021",
          "code": "I63.219",
          "display": "Cerebral infarction due to unspecified occlusion or stenosis of unspecified vertebral artery"
        }, {
          "system": "http://hl7.org/fhir/sid/icd-10-cm",
          "version": "2021",
          "code": "I63.22",
          "display": "Cerebral infarction due to unspecified occlusion or stenosis of basilar artery"
        }, {
          "system": "http://hl7.org/fhir/sid/icd-10-cm",
          "version": "2021",
          "code": "I63.231",
          "display": "Cerebral infarction due to unspecified occlusion or stenosis of right carotid arteries"
        }, {
          "system": "http://hl7.org/fhir/sid/icd-10-cm",
          "version": "2021",
          "code": "I63.232",
          "display": "Cerebral infarction due to unspecified occlusion or stenosis of left carotid arteries"
        }, {
          "system": "http://hl7.org/fhir/sid/icd-10-cm",
          "version": "2021",
          "code": "I63.233",
          "display": "Cerebral infarction due to unspecified occlusion or stenosis of bilateral carotid arteries"
        }, {
          "system": "http://hl7.org/fhir/sid/icd-10-cm",
          "version": "2021",
          "code": "I63.239",
          "display": "Cerebral infarction due to unspecified occlusion or stenosis of unspecified carotid artery"
        }, {
          "system": "http://hl7.org/fhir/sid/icd-10-cm",
          "version": "2021",
          "code": "I63.29",
          "display": "Cerebral infarction due to unspecified occlusion or stenosis of other precerebral arteries"
        }, {
          "system": "http://hl7.org/fhir/sid/icd-10-cm",
          "version": "2021",
          "code": "I63.30",
          "display": "Cerebral infarction due to thrombosis of unspecified cerebral artery"
        }, {
          "system": "http://hl7.org/fhir/sid/icd-10-cm",
          "version": "2021",
          "code": "I63.311",
          "display": "Cerebral infarction due to thrombosis of right middle cerebral artery"
        }, {
          "system": "http://hl7.org/fhir/sid/icd-10-cm",
          "version": "2021",
          "code": "I63.312",
          "display": "Cerebral infarction due to thrombosis of left middle cerebral artery"
        }, {
          "system": "http://hl7.org/fhir/sid/icd-10-cm",
          "version": "2021",
          "code": "I63.313",
          "display": "Cerebral infarction due to thrombosis of bilateral middle cerebral arteries"
        }, {
          "system": "http://hl7.org/fhir/sid/icd-10-cm",
          "version": "2021",
          "code": "I63.319",
          "display": "Cerebral infarction due to thrombosis of unspecified middle cerebral artery"
        }, {
          "system": "http://hl7.org/fhir/sid/icd-10-cm",
          "version": "2021",
          "code": "I63.321",
          "display": "Cerebral infarction due to thrombosis of right anterior cerebral artery"
        }, {
          "system": "http://hl7.org/fhir/sid/icd-10-cm",
          "version": "2021",
          "code": "I63.322",
          "display": "Cerebral infarction due to thrombosis of left anterior cerebral artery"
        }, {
          "system": "http://hl7.org/fhir/sid/icd-10-cm",
          "version": "2021",
          "code": "I63.323",
          "display": "Cerebral infarction due to thrombosis of bilateral anterior cerebral arteries"
        }, {
          "system": "http://hl7.org/fhir/sid/icd-10-cm",
          "version": "2021",
          "code": "I63.329",
          "display": "Cerebral infarction due to thrombosis of unspecified anterior cerebral artery"
        }, {
          "system": "http://hl7.org/fhir/sid/icd-10-cm",
          "version": "2021",
          "code": "I63.331",
          "display": "Cerebral infarction due to thrombosis of right posterior cerebral artery"
        }, {
          "system": "http://hl7.org/fhir/sid/icd-10-cm",
          "version": "2021",
          "code": "I63.332",
          "display": "Cerebral infarction due to thrombosis of left posterior cerebral artery"
        }, {
          "system": "http://hl7.org/fhir/sid/icd-10-cm",
          "version": "2021",
          "code": "I63.333",
          "display": "Cerebral infarction due to thrombosis of bilateral posterior cerebral arteries"
        }, {
          "system": "http://hl7.org/fhir/sid/icd-10-cm",
          "version": "2021",
          "code": "I63.339",
          "display": "Cerebral infarction due to thrombosis of unspecified posterior cerebral artery"
        }, {
          "system": "http://hl7.org/fhir/sid/icd-10-cm",
          "version": "2021",
          "code": "I63.341",
          "display": "Cerebral infarction due to thrombosis of right cerebellar artery"
        }, {
          "system": "http://hl7.org/fhir/sid/icd-10-cm",
          "version": "2021",
          "code": "I63.342",
          "display": "Cerebral infarction due to thrombosis of left cerebellar artery"
        }, {
          "system": "http://hl7.org/fhir/sid/icd-10-cm",
          "version": "2021",
          "code": "I63.343",
          "display": "Cerebral infarction due to thrombosis of bilateral cerebellar arteries"
        }, {
          "system": "http://hl7.org/fhir/sid/icd-10-cm",
          "version": "2021",
          "code": "I63.349",
          "display": "Cerebral infarction due to thrombosis of unspecified cerebellar artery"
        }, {
          "system": "http://hl7.org/fhir/sid/icd-10-cm",
          "version": "2021",
          "code": "I63.39",
          "display": "Cerebral infarction due to thrombosis of other cerebral artery"
        }, {
          "system": "http://hl7.org/fhir/sid/icd-10-cm",
          "version": "2021",
          "code": "I63.40",
          "display": "Cerebral infarction due to embolism of unspecified cerebral artery"
        }, {
          "system": "http://hl7.org/fhir/sid/icd-10-cm",
          "version": "2021",
          "code": "I63.411",
          "display": "Cerebral infarction due to embolism of right middle cerebral artery"
        }, {
          "system": "http://hl7.org/fhir/sid/icd-10-cm",
          "version": "2021",
          "code": "I63.412",
          "display": "Cerebral infarction due to embolism of left middle cerebral artery"
        }, {
          "system": "http://hl7.org/fhir/sid/icd-10-cm",
          "version": "2021",
          "code": "I63.413",
          "display": "Cerebral infarction due to embolism of bilateral middle cerebral arteries"
        }, {
          "system": "http://hl7.org/fhir/sid/icd-10-cm",
          "version": "2021",
          "code": "I63.419",
          "display": "Cerebral infarction due to embolism of unspecified middle cerebral artery"
        }, {
          "system": "http://hl7.org/fhir/sid/icd-10-cm",
          "version": "2021",
          "code": "I63.421",
          "display": "Cerebral infarction due to embolism of right anterior cerebral artery"
        }, {
          "system": "http://hl7.org/fhir/sid/icd-10-cm",
          "version": "2021",
          "code": "I63.422",
          "display": "Cerebral infarction due to embolism of left anterior cerebral artery"
        }, {
          "system": "http://hl7.org/fhir/sid/icd-10-cm",
          "version": "2021",
          "code": "I63.423",
          "display": "Cerebral infarction due to embolism of bilateral anterior cerebral arteries"
        }, {
          "system": "http://hl7.org/fhir/sid/icd-10-cm",
          "version": "2021",
          "code": "I63.429",
          "display": "Cerebral infarction due to embolism of unspecified anterior cerebral artery"
        }, {
          "system": "http://hl7.org/fhir/sid/icd-10-cm",
          "version": "2021",
          "code": "I63.431",
          "display": "Cerebral infarction due to embolism of right posterior cerebral artery"
        }, {
          "system": "http://hl7.org/fhir/sid/icd-10-cm",
          "version": "2021",
          "code": "I63.432",
          "display": "Cerebral infarction due to embolism of left posterior cerebral artery"
        }, {
          "system": "http://hl7.org/fhir/sid/icd-10-cm",
          "version": "2021",
          "code": "I63.433",
          "display": "Cerebral infarction due to embolism of bilateral posterior cerebral arteries"
        }, {
          "system": "http://hl7.org/fhir/sid/icd-10-cm",
          "version": "2021",
          "code": "I63.439",
          "display": "Cerebral infarction due to embolism of unspecified posterior cerebral artery"
        }, {
          "system": "http://hl7.org/fhir/sid/icd-10-cm",
          "version": "2021",
          "code": "I63.441",
          "display": "Cerebral infarction due to embolism of right cerebellar artery"
        }, {
          "system": "http://hl7.org/fhir/sid/icd-10-cm",
          "version": "2021",
          "code": "I63.442",
          "display": "Cerebral infarction due to embolism of left cerebellar artery"
        }, {
          "system": "http://hl7.org/fhir/sid/icd-10-cm",
          "version": "2021",
          "code": "I63.443",
          "display": "Cerebral infarction due to embolism of bilateral cerebellar arteries"
        }, {
          "system": "http://hl7.org/fhir/sid/icd-10-cm",
          "version": "2021",
          "code": "I63.449",
          "display": "Cerebral infarction due to embolism of unspecified cerebellar artery"
        }, {
          "system": "http://hl7.org/fhir/sid/icd-10-cm",
          "version": "2021",
          "code": "I63.49",
          "display": "Cerebral infarction due to embolism of other cerebral artery"
        }, {
          "system": "http://hl7.org/fhir/sid/icd-10-cm",
          "version": "2021",
          "code": "I63.50",
          "display": "Cerebral infarction due to unspecified occlusion or stenosis of unspecified cerebral artery"
        }, {
          "system": "http://hl7.org/fhir/sid/icd-10-cm",
          "version": "2021",
          "code": "I63.511",
          "display": "Cerebral infarction due to unspecified occlusion or stenosis of right middle cerebral artery"
        }, {
          "system": "http://hl7.org/fhir/sid/icd-10-cm",
          "version": "2021",
          "code": "I63.512",
          "display": "Cerebral infarction due to unspecified occlusion or stenosis of left middle cerebral artery"
        }, {
          "system": "http://hl7.org/fhir/sid/icd-10-cm",
          "version": "2021",
          "code": "I63.513",
          "display": "Cerebral infarction due to unspecified occlusion or stenosis of bilateral middle cerebral arteries"
        }, {
          "system": "http://hl7.org/fhir/sid/icd-10-cm",
          "version": "2021",
          "code": "I63.519",
          "display": "Cerebral infarction due to unspecified occlusion or stenosis of unspecified middle cerebral artery"
        }, {
          "system": "http://hl7.org/fhir/sid/icd-10-cm",
          "version": "2021",
          "code": "I63.521",
          "display": "Cerebral infarction due to unspecified occlusion or stenosis of right anterior cerebral artery"
        }, {
          "system": "http://hl7.org/fhir/sid/icd-10-cm",
          "version": "2021",
          "code": "I63.522",
          "display": "Cerebral infarction due to unspecified occlusion or stenosis of left anterior cerebral artery"
        }, {
          "system": "http://hl7.org/fhir/sid/icd-10-cm",
          "version": "2021",
          "code": "I63.523",
          "display": "Cerebral infarction due to unspecified occlusion or stenosis of bilateral anterior cerebral arteries"
        }, {
          "system": "http://hl7.org/fhir/sid/icd-10-cm",
          "version": "2021",
          "code": "I63.529",
          "display": "Cerebral infarction due to unspecified occlusion or stenosis of unspecified anterior cerebral artery"
        }, {
          "system": "http://hl7.org/fhir/sid/icd-10-cm",
          "version": "2021",
          "code": "I63.531",
          "display": "Cerebral infarction due to unspecified occlusion or stenosis of right posterior cerebral artery"
        }, {
          "system": "http://hl7.org/fhir/sid/icd-10-cm",
          "version": "2021",
          "code": "I63.532",
          "display": "Cerebral infarction due to unspecified occlusion or stenosis of left posterior cerebral artery"
        }, {
          "system": "http://hl7.org/fhir/sid/icd-10-cm",
          "version": "2021",
          "code": "I63.533",
          "display": "Cerebral infarction due to unspecified occlusion or stenosis of bilateral posterior cerebral arteries"
        }, {
          "system": "http://hl7.org/fhir/sid/icd-10-cm",
          "version": "2021",
          "code": "I63.539",
          "display": "Cerebral infarction due to unspecified occlusion or stenosis of unspecified posterior cerebral artery"
        }, {
          "system": "http://hl7.org/fhir/sid/icd-10-cm",
          "version": "2021",
          "code": "I63.541",
          "display": "Cerebral infarction due to unspecified occlusion or stenosis of right cerebellar artery"
        }, {
          "system": "http://hl7.org/fhir/sid/icd-10-cm",
          "version": "2021",
          "code": "I63.542",
          "display": "Cerebral infarction due to unspecified occlusion or stenosis of left cerebellar artery"
        }, {
          "system": "http://hl7.org/fhir/sid/icd-10-cm",
          "version": "2021",
          "code": "I63.543",
          "display": "Cerebral infarction due to unspecified occlusion or stenosis of bilateral cerebellar arteries"
        }, {
          "system": "http://hl7.org/fhir/sid/icd-10-cm",
          "version": "2021",
          "code": "I63.549",
          "display": "Cerebral infarction due to unspecified occlusion or stenosis of unspecified cerebellar artery"
        }, {
          "system": "http://hl7.org/fhir/sid/icd-10-cm",
          "version": "2021",
          "code": "I63.59",
          "display": "Cerebral infarction due to unspecified occlusion or stenosis of other cerebral artery"
        }, {
          "system": "http://hl7.org/fhir/sid/icd-10-cm",
          "version": "2021",
          "code": "I63.6",
          "display": "Cerebral infarction due to cerebral venous thrombosis, nonpyogenic"
        }, {
          "system": "http://hl7.org/fhir/sid/icd-10-cm",
          "version": "2021",
          "code": "I63.81",
          "display": "Other cerebral infarction due to occlusion or stenosis of small artery"
        }, {
          "system": "http://hl7.org/fhir/sid/icd-10-cm",
          "version": "2021",
          "code": "I63.89",
          "display": "Other cerebral infarction"
        }, {
          "system": "http://hl7.org/fhir/sid/icd-10-cm",
          "version": "2021",
          "code": "I63.9",
          "display": "Cerebral infarction, unspecified"
        }, {
          "system": "http://snomed.info/sct",
          "version": "2020-09",
          "code": "111297002",
          "display": "Nonparalytic stroke (disorder)"
        }, {
          "system": "http://snomed.info/sct",
          "version": "2020-09",
          "code": "116288000",
          "display": "Paralytic stroke (disorder)"
        }, {
          "system": "http://snomed.info/sct",
          "version": "2020-09",
          "code": "195185009",
          "display": "Cerebral infarct due to thrombosis of precerebral arteries (disorder)"
        }, {
          "system": "http://snomed.info/sct",
          "version": "2020-09",
          "code": "195186005",
          "display": "Cerebral infarction due to embolism of precerebral arteries (disorder)"
        }, {
          "system": "http://snomed.info/sct",
          "version": "2020-09",
          "code": "195189003",
          "display": "Cerebral infarction due to thrombosis of cerebral arteries (disorder)"
        }, {
          "system": "http://snomed.info/sct",
          "version": "2020-09",
          "code": "195190007",
          "display": "Cerebral infarction due to embolism of cerebral arteries (disorder)"
        }, {
          "system": "http://snomed.info/sct",
          "version": "2020-09",
          "code": "195212005",
          "display": "Brainstem stroke syndrome (disorder)"
        }, {
          "system": "http://snomed.info/sct",
          "version": "2020-09",
          "code": "195213000",
          "display": "Cerebellar stroke syndrome (disorder)"
        }, {
          "system": "http://snomed.info/sct",
          "version": "2020-09",
          "code": "195216008",
          "display": "Left sided cerebral hemisphere cerebrovascular accident (disorder)"
        }, {
          "system": "http://snomed.info/sct",
          "version": "2020-09",
          "code": "195217004",
          "display": "Right sided cerebral hemisphere cerebrovascular accident (disorder)"
        }, {
          "system": "http://snomed.info/sct",
          "version": "2020-09",
          "code": "195230003",
          "display": "Cerebral infarction due to cerebral venous thrombosis, non-pyogenic (disorder)"
        }, {
          "system": "http://snomed.info/sct",
          "version": "2020-09",
          "code": "230690007",
          "display": "Cerebrovascular accident (disorder)"
        }, {
          "system": "http://snomed.info/sct",
          "version": "2020-09",
          "code": "230691006",
          "display": "Cerebrovascular accident due to occlusion of cerebral artery (disorder)"
        }, {
          "system": "http://snomed.info/sct",
          "version": "2020-09",
          "code": "230692004",
          "display": "Infarction - precerebral (disorder)"
        }, {
          "system": "http://snomed.info/sct",
          "version": "2020-09",
          "code": "230693009",
          "display": "Anterior cerebral circulation infarction (disorder)"
        }, {
          "system": "http://snomed.info/sct",
          "version": "2020-09",
          "code": "230694003",
          "display": "Total anterior cerebral circulation infarction (disorder)"
        }, {
          "system": "http://snomed.info/sct",
          "version": "2020-09",
          "code": "230695002",
          "display": "Partial anterior cerebral circulation infarction (disorder)"
        }, {
          "system": "http://snomed.info/sct",
          "version": "2020-09",
          "code": "230696001",
          "display": "Posterior cerebral circulation infarction (disorder)"
        }, {
          "system": "http://snomed.info/sct",
          "version": "2020-09",
          "code": "230698000",
          "display": "Lacunar infarction (disorder)"
        }, {
          "system": "http://snomed.info/sct",
          "version": "2020-09",
          "code": "230699008",
          "display": "Pure motor lacunar infarction (disorder)"
        }, {
          "system": "http://snomed.info/sct",
          "version": "2020-09",
          "code": "230700009",
          "display": "Pure sensory lacunar infarction (disorder)"
        }, {
          "system": "http://snomed.info/sct",
          "version": "2020-09",
          "code": "230701008",
          "display": "Pure sensorimotor lacunar infarction (disorder)"
        }, {
          "system": "http://snomed.info/sct",
          "version": "2020-09",
          "code": "307363008",
          "display": "Multiple lacunar infarcts (disorder)"
        }, {
          "system": "http://snomed.info/sct",
          "version": "2020-09",
          "code": "422504002",
          "display": "Ischemic stroke (disorder)"
        }, {
          "system": "http://snomed.info/sct",
          "version": "2020-09",
          "code": "426107000",
          "display": "Acute lacunar infarction (disorder)"
        } ]
      }
    },
    "request": {
      "method": "PUT",
      "url": "ValueSet/2.16.840.1.113883.3.117.1.7.1.247"
    }
  }, {
    "resource": {
      "resourceType": "ServiceRequest",
      "id": "ServiceRequest-denomexcl-EXM104-1",
      "status": "active",
      "intent": "order",
      "code": {
        "coding": [ {
          "system": "http://snomed.info/sct",
          "code": "133918004",
          "display": "Comfort measures (regime/therapy)"
        } ]
      },
      "subject": {
        "reference": "Patient/Patient-denomexcl-EXM104"
      },
      "encounter": {
        "reference": "Encounter/Encounter-denomexcl-EXM104"
      },
      "authoredOn": "2019-08-21T00:00:00-06:00"
    },
    "request": {
      "method": "PUT",
      "url": "ServiceRequest/ServiceRequest-denomexcl-EXM104-1"
    }
  }, {
    "resource": {
      "resourceType": "Encounter",
      "id": "Encounter-denom-EXM104",
      "meta": {
        "profile": [ "http://hl7.org/fhir/us/core/StructureDefinition/us-core-encounter" ]
      },
      "status": "finished",
      "class": {
        "system": "http://terminology.hl7.org/CodeSystem/v3-ActCode",
        "code": "IMP",
        "display": "inpatient encounter"
      },
      "type": [ {
        "coding": [ {
          "system": "http://snomed.info/sct",
          "code": "32485007",
          "display": "Hospital admission (procedure)"
        } ]
      } ],
      "subject": {
        "reference": "Patient/Patient-denom-EXM104"
      },
      "period": {
        "start": "2019-08-21T00:00:00-06:00",
        "end": "2019-12-19T08:15:00-07:00"
      },
      "diagnosis": [ {
        "condition": {
          "reference": "Condition/Condition-denom-EXM104"
        },
        "use": {
          "coding": [ {
            "system": "http://hl7.org/fhir/diagnosis-role",
            "code": "billing",
            "display": "Billing"
          } ]
        },
        "rank": 1
      } ]
    },
    "request": {
      "method": "PUT",
      "url": "Encounter/Encounter-denom-EXM104"
    }
  }, {
    "resource": {
      "resourceType": "ValueSet",
      "id": "2.16.840.1.113883.3.117.1.7.1.207",
      "url": "http://cts.nlm.nih.gov/fhir/ValueSet/2.16.840.1.113883.3.117.1.7.1.207",
      "identifier": [ {
        "system": "urn:ietf:rfc:3986",
        "value": "2.16.840.1.113883.3.117.1.7.1.207"
      } ],
      "version": "20210220",
      "name": "DischargedtoHealthCareFacilityforHospiceCare",
      "title": "Discharged to Health Care Facility for Hospice Care",
      "status": "active",
      "experimental": false,
      "publisher": "NLM",
      "expansion": {
        "identifier": "20210506",
        "timestamp": "2021-07-19T17:22:05-06:00",
        "contains": [ {
          "system": "http://snomed.info/sct",
          "version": "2020-09",
          "code": "428371000124100",
          "display": "Discharge to healthcare facility for hospice care (procedure)"
        } ]
      }
    },
    "request": {
      "method": "PUT",
      "url": "ValueSet/2.16.840.1.113883.3.117.1.7.1.207"
    }
  }, {
    "resource": {
      "resourceType": "ValueSet",
      "id": "2.16.840.1.113883.3.117.1.7.1.209",
      "url": "http://cts.nlm.nih.gov/fhir/ValueSet/2.16.840.1.113883.3.117.1.7.1.209",
      "identifier": [ {
        "system": "urn:ietf:rfc:3986",
        "value": "2.16.840.1.113883.3.117.1.7.1.209"
      } ],
      "version": "20210220",
      "name": "DischargedtoHomeforHospiceCare",
      "title": "Discharged to Home for Hospice Care",
      "status": "active",
      "experimental": false,
      "publisher": "NLM",
      "expansion": {
        "identifier": "20210506",
        "timestamp": "2021-07-19T17:22:05-06:00",
        "contains": [ {
          "system": "http://snomed.info/sct",
          "version": "2020-09",
          "code": "428361000124107",
          "display": "Discharge to home for hospice care (procedure)"
        } ]
      }
    },
    "request": {
      "method": "PUT",
      "url": "ValueSet/2.16.840.1.113883.3.117.1.7.1.209"
    }
  }, {
    "resource": {
      "resourceType": "Patient",
      "id": "denomexcl-EXM104",
      "meta": {
        "profile": [ "http://hl7.org/fhir/us/core/StructureDefinition/us-core-patient" ]
      },
      "extension": [ {
        "url": "http://hl7.org/fhir/us/core/StructureDefinition/us-core-race",
        "extension": [ {
          "url": "ombCategory",
          "valueCoding": {
            "system": "urn:oid:2.16.840.1.113883.6.238",
            "code": "2054-5",
            "display": "Black or African American"
          }
        } ]
      }, {
        "url": "http://hl7.org/fhir/us/core/StructureDefinition/us-core-ethnicity",
        "extension": [ {
          "url": "ombCategory",
          "valueCoding": {
            "system": "urn:oid:2.16.840.1.113883.6.238",
            "code": "2135-2",
            "display": "Hispanic or Latino"
          }
        } ]
      } ],
      "identifier": [ {
        "use": "usual",
        "type": {
          "coding": [ {
            "system": "http://terminology.hl7.org/CodeSystem/v2-0203",
            "code": "MR",
            "display": "Medical Record Number"
          } ]
        },
        "system": "http://hospital.smarthealthit.org",
        "value": "9999999910"
      } ],
      "name": [ {
        "family": "Jones",
        "given": [ "Rick" ]
      } ],
      "gender": "male",
      "birthDate": "1955-11-05"
    },
    "request": {
      "method": "PUT",
      "url": "Patient/denomexcl-EXM104"
    }
  }, {
    "resource": {
      "resourceType": "ValueSet",
      "id": "2.16.840.1.113883.3.117.1.7.1.201",
      "meta": {
        "profile": [ "http://hl7.org/fhir/uv/cpg/StructureDefinition/cpg-shareablevalueset", "http://hl7.org/fhir/uv/cpg/StructureDefinition/cpg-publishablevalueset", "http://hl7.org/fhir/uv/cpg/StructureDefinition/cpg-executablevalueset" ]
      },
      "extension": [ {
        "url": "http://hl7.org/fhir/uv/cpg/StructureDefinition/cpg-knowledgeCapability",
        "valueCode": "shareable"
      }, {
        "url": "http://hl7.org/fhir/uv/cpg/StructureDefinition/cpg-knowledgeRepresentationLevel",
        "valueCode": "narrative"
      }, {
        "url": "http://hl7.org/fhir/uv/cpg/StructureDefinition/cpg-knowledgeCapability",
        "valueCode": "publishable"
      }, {
        "url": "http://fhir.org/guides/cdc/opioid-cds/StructureDefinition/cdc-valueset-inclusion",
        "valueString": "Includes concepts that represent a medication that is an antithrombotic medication, including oral, rectal, and injectable dose forms."
      }, {
        "url": "http://fhir.org/guides/cdc/opioid-cds/StructureDefinition/cdc-valueset-exclusion",
        "valueString": "Excludes concepts that represent enoxaparin and heparin generally given for VTE prophylaxis."
      }, {
        "url": "http://hl7.org/fhir/uv/cpg/StructureDefinition/cpg-knowledgeCapability",
        "valueCode": "executable"
      }, {
        "url": "http://hl7.org/fhir/uv/cpg/StructureDefinition/cpg-knowledgeRepresentationLevel",
        "valueCode": "executable"
      }, {
        "url": "http://hl7.org/fhir/uv/cpg/StructureDefinition/cpg-usageWarning",
        "valueString": "This value set contains a point-in-time expansion enumerating the codes that meet the value set intent. As new versions of the code systems used by the value set are released, the contents of this expansion will need to be updated to incorporate newly defined codes that meet the value set intent. Before, and periodically during production use, the value set expansion contents SHOULD be updated. The value set expansion specifies the timestamp when the expansion was produced, SHOULD contain the parameters used for the expansion, and SHALL contain the codes that are obtained by evaluating the value set definition. If this is ONLY an executable value set, a distributable definition of the value set must be obtained to compute the updated expansion."
      } ],
      "url": "http://cts.nlm.nih.gov/fhir/ValueSet/2.16.840.1.113883.3.117.1.7.1.201",
      "version": "20210409",
      "title": "Antithrombotic Therapy_Anticoagulant",
      "status": "active",
      "experimental": false,
      "publisher": "The Joint Commission",
      "description": "The purpose of this value set is to represent concepts of medications that are anticoagulant medications used to reduce stroke mortality and morbidity.",
      "purpose": "This value set may use a model element related to Medication.",
      "expansion": {
        "timestamp": "2021-08-26T13:47:00-06:00",
        "contains": [ {
          "system": "http://www.nlm.nih.gov/research/umls/rxnorm",
          "version": "2021-07",
          "code": "1037045",
          "display": "dabigatran etexilate 150 MG Oral Capsule"
        }, {
          "system": "http://www.nlm.nih.gov/research/umls/rxnorm",
          "version": "2021-07",
          "code": "1037179",
          "display": "dabigatran etexilate 75 MG Oral Capsule"
        }, {
          "system": "http://www.nlm.nih.gov/research/umls/rxnorm",
          "version": "2021-07",
          "code": "1114198",
          "display": "rivaroxaban 10 MG Oral Tablet"
        }, {
          "system": "http://www.nlm.nih.gov/research/umls/rxnorm",
          "version": "2021-07",
          "code": "1232082",
          "display": "rivaroxaban 15 MG Oral Tablet"
        }, {
          "system": "http://www.nlm.nih.gov/research/umls/rxnorm",
          "version": "2021-07",
          "code": "1232086",
          "display": "rivaroxaban 20 MG Oral Tablet"
        }, {
          "system": "http://www.nlm.nih.gov/research/umls/rxnorm",
          "version": "2021-07",
          "code": "1361574",
          "display": "heparin sodium, porcine 20000 UNT/ML Injectable Solution"
        }, {
          "system": "http://www.nlm.nih.gov/research/umls/rxnorm",
          "version": "2021-07",
          "code": "1364435",
          "display": "apixaban 2.5 MG Oral Tablet"
        }, {
          "system": "http://www.nlm.nih.gov/research/umls/rxnorm",
          "version": "2021-07",
          "code": "1364445",
          "display": "apixaban 5 MG Oral Tablet"
        }, {
          "system": "http://www.nlm.nih.gov/research/umls/rxnorm",
          "version": "2021-07",
          "code": "1549682",
          "display": "{42 (rivaroxaban 15 MG Oral Tablet) / 9 (rivaroxaban 20 MG Oral Tablet) } Pack"
        }, {
          "system": "http://www.nlm.nih.gov/research/umls/rxnorm",
          "version": "2021-07",
          "code": "1599543",
          "display": "edoxaban 15 MG Oral Tablet"
        }, {
          "system": "http://www.nlm.nih.gov/research/umls/rxnorm",
          "version": "2021-07",
          "code": "1599551",
          "display": "edoxaban 30 MG Oral Tablet"
        }, {
          "system": "http://www.nlm.nih.gov/research/umls/rxnorm",
          "version": "2021-07",
          "code": "1599555",
          "display": "edoxaban 60 MG Oral Tablet"
        }, {
          "system": "http://www.nlm.nih.gov/research/umls/rxnorm",
          "version": "2021-07",
          "code": "1658717",
          "display": "250 ML heparin sodium, porcine 100 UNT/ML Injection"
        }, {
          "system": "http://www.nlm.nih.gov/research/umls/rxnorm",
          "version": "2021-07",
          "code": "1659195",
          "display": "500 ML heparin sodium, porcine 50 UNT/ML Injection"
        }, {
          "system": "http://www.nlm.nih.gov/research/umls/rxnorm",
          "version": "2021-07",
          "code": "1659197",
          "display": "250 ML heparin sodium, porcine 50 UNT/ML Injection"
        }, {
          "system": "http://www.nlm.nih.gov/research/umls/rxnorm",
          "version": "2021-07",
          "code": "1723476",
          "display": "dabigatran etexilate 110 MG Oral Capsule"
        }, {
          "system": "http://www.nlm.nih.gov/research/umls/rxnorm",
          "version": "2021-07",
          "code": "1804735",
          "display": "50 ML argatroban 1 MG/ML Injection"
        }, {
          "system": "http://www.nlm.nih.gov/research/umls/rxnorm",
          "version": "2021-07",
          "code": "1804737",
          "display": "125 ML argatroban 1 MG/ML Injection"
        }, {
          "system": "http://www.nlm.nih.gov/research/umls/rxnorm",
          "version": "2021-07",
          "code": "1804738",
          "display": "250 ML argatroban 1 MG/ML Injection"
        }, {
          "system": "http://www.nlm.nih.gov/research/umls/rxnorm",
          "version": "2021-07",
          "code": "1992427",
          "display": "{74 (apixaban 5 MG Oral Tablet) } Pack"
        }, {
          "system": "http://www.nlm.nih.gov/research/umls/rxnorm",
          "version": "2021-07",
          "code": "2059015",
          "display": "rivaroxaban 2.5 MG Oral Tablet"
        }, {
          "system": "http://www.nlm.nih.gov/research/umls/rxnorm",
          "version": "2021-07",
          "code": "308351",
          "display": "2.5 ML argatroban 100 MG/ML Injection"
        }, {
          "system": "http://www.nlm.nih.gov/research/umls/rxnorm",
          "version": "2021-07",
          "code": "309362",
          "display": "clopidogrel 75 MG Oral Tablet"
        }, {
          "system": "http://www.nlm.nih.gov/research/umls/rxnorm",
          "version": "2021-07",
          "code": "313406",
          "display": "ticlopidine hydrochloride 250 MG Oral Tablet"
        }, {
          "system": "http://www.nlm.nih.gov/research/umls/rxnorm",
          "version": "2021-07",
          "code": "749196",
          "display": "clopidogrel 300 MG Oral Tablet"
        }, {
          "system": "http://www.nlm.nih.gov/research/umls/rxnorm",
          "version": "2021-07",
          "code": "854228",
          "display": "0.3 ML enoxaparin sodium 100 MG/ML Prefilled Syringe"
        }, {
          "system": "http://www.nlm.nih.gov/research/umls/rxnorm",
          "version": "2021-07",
          "code": "854235",
          "display": "0.4 ML enoxaparin sodium 100 MG/ML Prefilled Syringe"
        }, {
          "system": "http://www.nlm.nih.gov/research/umls/rxnorm",
          "version": "2021-07",
          "code": "854238",
          "display": "0.6 ML enoxaparin sodium 100 MG/ML Prefilled Syringe"
        }, {
          "system": "http://www.nlm.nih.gov/research/umls/rxnorm",
          "version": "2021-07",
          "code": "854241",
          "display": "0.8 ML enoxaparin sodium 100 MG/ML Prefilled Syringe"
        }, {
          "system": "http://www.nlm.nih.gov/research/umls/rxnorm",
          "version": "2021-07",
          "code": "854245",
          "display": "0.8 ML enoxaparin sodium 150 MG/ML Prefilled Syringe"
        }, {
          "system": "http://www.nlm.nih.gov/research/umls/rxnorm",
          "version": "2021-07",
          "code": "854248",
          "display": "1 ML enoxaparin sodium 100 MG/ML Prefilled Syringe"
        }, {
          "system": "http://www.nlm.nih.gov/research/umls/rxnorm",
          "version": "2021-07",
          "code": "854252",
          "display": "1 ML enoxaparin sodium 150 MG/ML Prefilled Syringe"
        }, {
          "system": "http://www.nlm.nih.gov/research/umls/rxnorm",
          "version": "2021-07",
          "code": "854255",
          "display": "enoxaparin sodium 100 MG/ML Injectable Solution"
        }, {
          "system": "http://www.nlm.nih.gov/research/umls/rxnorm",
          "version": "2021-07",
          "code": "855288",
          "display": "warfarin sodium 1 MG Oral Tablet"
        }, {
          "system": "http://www.nlm.nih.gov/research/umls/rxnorm",
          "version": "2021-07",
          "code": "855296",
          "display": "warfarin sodium 10 MG Oral Tablet"
        }, {
          "system": "http://www.nlm.nih.gov/research/umls/rxnorm",
          "version": "2021-07",
          "code": "855302",
          "display": "warfarin sodium 2 MG Oral Tablet"
        }, {
          "system": "http://www.nlm.nih.gov/research/umls/rxnorm",
          "version": "2021-07",
          "code": "855312",
          "display": "warfarin sodium 2.5 MG Oral Tablet"
        }, {
          "system": "http://www.nlm.nih.gov/research/umls/rxnorm",
          "version": "2021-07",
          "code": "855318",
          "display": "warfarin sodium 3 MG Oral Tablet"
        }, {
          "system": "http://www.nlm.nih.gov/research/umls/rxnorm",
          "version": "2021-07",
          "code": "855324",
          "display": "warfarin sodium 4 MG Oral Tablet"
        }, {
          "system": "http://www.nlm.nih.gov/research/umls/rxnorm",
          "version": "2021-07",
          "code": "855332",
          "display": "warfarin sodium 5 MG Oral Tablet"
        }, {
          "system": "http://www.nlm.nih.gov/research/umls/rxnorm",
          "version": "2021-07",
          "code": "855338",
          "display": "warfarin sodium 6 MG Oral Tablet"
        }, {
          "system": "http://www.nlm.nih.gov/research/umls/rxnorm",
          "version": "2021-07",
          "code": "855344",
          "display": "warfarin sodium 7.5 MG Oral Tablet"
        }, {
          "system": "http://www.nlm.nih.gov/research/umls/rxnorm",
          "version": "2021-07",
          "code": "861356",
          "display": "0.8 ML fondaparinux sodium 12.5 MG/ML Prefilled Syringe"
        }, {
          "system": "http://www.nlm.nih.gov/research/umls/rxnorm",
          "version": "2021-07",
          "code": "861360",
          "display": "0.5 ML fondaparinux sodium 5 MG/ML Prefilled Syringe"
        }, {
          "system": "http://www.nlm.nih.gov/research/umls/rxnorm",
          "version": "2021-07",
          "code": "861363",
          "display": "0.4 ML fondaparinux sodium 12.5 MG/ML Prefilled Syringe"
        }, {
          "system": "http://www.nlm.nih.gov/research/umls/rxnorm",
          "version": "2021-07",
          "code": "861365",
          "display": "0.6 ML fondaparinux sodium 12.5 MG/ML Prefilled Syringe"
        }, {
          "system": "http://www.nlm.nih.gov/research/umls/rxnorm",
          "version": "2021-07",
          "code": "978725",
          "display": "0.2 ML dalteparin sodium 12500 UNT/ML Prefilled Syringe"
        }, {
          "system": "http://www.nlm.nih.gov/research/umls/rxnorm",
          "version": "2021-07",
          "code": "978733",
          "display": "0.2 ML dalteparin sodium 25000 UNT/ML Prefilled Syringe"
        }, {
          "system": "http://www.nlm.nih.gov/research/umls/rxnorm",
          "version": "2021-07",
          "code": "978736",
          "display": "0.3 ML dalteparin sodium 25000 UNT/ML Prefilled Syringe"
        }, {
          "system": "http://www.nlm.nih.gov/research/umls/rxnorm",
          "version": "2021-07",
          "code": "978740",
          "display": "0.5 ML dalteparin sodium 25000 UNT/ML Prefilled Syringe"
        }, {
          "system": "http://www.nlm.nih.gov/research/umls/rxnorm",
          "version": "2021-07",
          "code": "978744",
          "display": "0.6 ML dalteparin sodium 25000 UNT/ML Prefilled Syringe"
        }, {
          "system": "http://www.nlm.nih.gov/research/umls/rxnorm",
          "version": "2021-07",
          "code": "978746",
          "display": "0.72 ML dalteparin sodium 25000 UNT/ML Prefilled Syringe"
        }, {
          "system": "http://www.nlm.nih.gov/research/umls/rxnorm",
          "version": "2021-07",
          "code": "978755",
          "display": "1 ML dalteparin sodium 10000 UNT/ML Prefilled Syringe"
        }, {
          "system": "http://www.nlm.nih.gov/research/umls/rxnorm",
          "version": "2021-07",
          "code": "978759",
          "display": "dalteparin sodium 10000 UNT/ML Injectable Solution"
        }, {
          "system": "http://www.nlm.nih.gov/research/umls/rxnorm",
          "version": "2021-07",
          "code": "978777",
          "display": "dalteparin sodium 25000 UNT/ML Injectable Solution"
        } ]
      }
    },
    "request": {
      "method": "PUT",
      "url": "ValueSet/2.16.840.1.113883.3.117.1.7.1.201"
    }
  }, {
    "resource": {
      "resourceType": "Condition",
      "id": "Condition-denom-EXM104",
      "meta": {
        "profile": [ "http://hl7.org/fhir/us/core/StructureDefinition/us-core-condition" ]
      },
      "verificationStatus": {
        "coding": [ {
          "system": "http://terminology.hl7.org/CodeSystem/condition-ver-status",
          "code": "confirmed",
          "display": "Confirmed"
        } ]
      },
      "category": [ {
        "coding": [ {
          "system": "http://terminology.hl7.org/CodeSystem/condition-category",
          "code": "encounter-diagnosis",
          "display": "Encounter Diagnosis"
        } ]
      } ],
      "code": {
        "coding": [ {
          "system": "http://snomed.info/sct",
          "code": "116288000",
          "display": "Paralytic stroke (disorder)"
        } ]
      },
      "subject": {
        "reference": "Patient/denom-EXM104"
      }
    },
    "request": {
      "method": "PUT",
      "url": "Condition/Condition-denom-EXM104"
    }
  }, {
    "resource": {
      "resourceType": "ValueSet",
      "id": "2.16.840.1.114222.4.11.3591",
      "url": "http://cts.nlm.nih.gov/fhir/ValueSet/2.16.840.1.114222.4.11.3591",
      "identifier": [ {
        "system": "urn:ietf:rfc:3986",
        "value": "2.16.840.1.114222.4.11.3591"
      } ],
      "version": "20180718",
      "name": "Payer",
      "title": "Payer",
      "status": "active",
      "experimental": false,
      "publisher": "NLM",
      "expansion": {
        "identifier": "20210506",
        "timestamp": "2021-07-19T17:22:06-06:00",
        "contains": [ {
          "system": "urn:oid:2.16.840.1.113883.3.221.5",
          "version": "9.2",
          "code": "1",
          "display": "MEDICARE"
        }, {
          "system": "urn:oid:2.16.840.1.113883.3.221.5",
          "version": "9.2",
          "code": "11",
          "display": "Medicare Managed Care (Includes Medicare Advantage Plans)"
        }, {
          "system": "urn:oid:2.16.840.1.113883.3.221.5",
          "version": "9.2",
          "code": "111",
          "display": "Medicare HMO"
        }, {
          "system": "urn:oid:2.16.840.1.113883.3.221.5",
          "version": "9.2",
          "code": "112",
          "display": "Medicare PPO"
        }, {
          "system": "urn:oid:2.16.840.1.113883.3.221.5",
          "version": "9.2",
          "code": "113",
          "display": "Medicare POS"
        }, {
          "system": "urn:oid:2.16.840.1.113883.3.221.5",
          "version": "9.2",
          "code": "119",
          "display": "Medicare Managed Care Other"
        }, {
          "system": "urn:oid:2.16.840.1.113883.3.221.5",
          "version": "9.2",
          "code": "12",
          "display": "Medicare (Non-managed Care)"
        }, {
          "system": "urn:oid:2.16.840.1.113883.3.221.5",
          "version": "9.2",
          "code": "121",
          "display": "Medicare FFS"
        }, {
          "system": "urn:oid:2.16.840.1.113883.3.221.5",
          "version": "9.2",
          "code": "122",
          "display": "Medicare Drug Benefit"
        }, {
          "system": "urn:oid:2.16.840.1.113883.3.221.5",
          "version": "9.2",
          "code": "123",
          "display": "Medicare Medical Savings Account (MSA)"
        }, {
          "system": "urn:oid:2.16.840.1.113883.3.221.5",
          "version": "9.2",
          "code": "129",
          "display": "Medicare Non-managed Care Other"
        }, {
          "system": "urn:oid:2.16.840.1.113883.3.221.5",
          "version": "9.2",
          "code": "13",
          "display": "Medicare Hospice"
        }, {
          "system": "urn:oid:2.16.840.1.113883.3.221.5",
          "version": "9.2",
          "code": "14",
          "display": "Dual Eligibility Medicare/Medicaid Organization"
        }, {
          "system": "urn:oid:2.16.840.1.113883.3.221.5",
          "version": "9.2",
          "code": "19",
          "display": "Medicare Other"
        }, {
          "system": "urn:oid:2.16.840.1.113883.3.221.5",
          "version": "9.2",
          "code": "191",
          "display": "Medicare Pharmacy Benefit Manager"
        }, {
          "system": "urn:oid:2.16.840.1.113883.3.221.5",
          "version": "9.2",
          "code": "2",
          "display": "MEDICAID"
        }, {
          "system": "urn:oid:2.16.840.1.113883.3.221.5",
          "version": "9.2",
          "code": "21",
          "display": "Medicaid (Managed Care)"
        }, {
          "system": "urn:oid:2.16.840.1.113883.3.221.5",
          "version": "9.2",
          "code": "211",
          "display": "Medicaid HMO"
        }, {
          "system": "urn:oid:2.16.840.1.113883.3.221.5",
          "version": "9.2",
          "code": "212",
          "display": "Medicaid PPO"
        }, {
          "system": "urn:oid:2.16.840.1.113883.3.221.5",
          "version": "9.2",
          "code": "213",
          "display": "Medicaid PCCM (Primary Care Case Management)"
        }, {
          "system": "urn:oid:2.16.840.1.113883.3.221.5",
          "version": "9.2",
          "code": "219",
          "display": "Medicaid Managed Care Other"
        }, {
          "system": "urn:oid:2.16.840.1.113883.3.221.5",
          "version": "9.2",
          "code": "22",
          "display": "Medicaid (Non-managed Care Plan)"
        }, {
          "system": "urn:oid:2.16.840.1.113883.3.221.5",
          "version": "9.2",
          "code": "23",
          "display": "Medicaid/SCHIP"
        }, {
          "system": "urn:oid:2.16.840.1.113883.3.221.5",
          "version": "9.2",
          "code": "25",
          "display": "Medicaid - Out of State"
        }, {
          "system": "urn:oid:2.16.840.1.113883.3.221.5",
          "version": "9.2",
          "code": "26",
          "display": "Medicaid - Long Term Care"
        }, {
          "system": "urn:oid:2.16.840.1.113883.3.221.5",
          "version": "9.2",
          "code": "29",
          "display": "Medicaid Other"
        }, {
          "system": "urn:oid:2.16.840.1.113883.3.221.5",
          "version": "9.2",
          "code": "291",
          "display": "Medicaid Pharmacy Benefit Manager"
        }, {
          "system": "urn:oid:2.16.840.1.113883.3.221.5",
          "version": "9.2",
          "code": "299",
          "display": "Medicaid - Dental"
        }, {
          "system": "urn:oid:2.16.840.1.113883.3.221.5",
          "version": "9.2",
          "code": "3",
          "display": "OTHER GOVERNMENT (Federal/State/Local) (excluding Department of Corrections)"
        }, {
          "system": "urn:oid:2.16.840.1.113883.3.221.5",
          "version": "9.2",
          "code": "31",
          "display": "Department of Defense"
        }, {
          "system": "urn:oid:2.16.840.1.113883.3.221.5",
          "version": "9.2",
          "code": "311",
          "display": "TRICARE (CHAMPUS)"
        }, {
          "system": "urn:oid:2.16.840.1.113883.3.221.5",
          "version": "9.2",
          "code": "3111",
          "display": "TRICARE Prime--HMO"
        }, {
          "system": "urn:oid:2.16.840.1.113883.3.221.5",
          "version": "9.2",
          "code": "3112",
          "display": "TRICARE Extra--PPO"
        }, {
          "system": "urn:oid:2.16.840.1.113883.3.221.5",
          "version": "9.2",
          "code": "3113",
          "display": "TRICARE Standard - Fee For Service"
        }, {
          "system": "urn:oid:2.16.840.1.113883.3.221.5",
          "version": "9.2",
          "code": "3114",
          "display": "TRICARE For Life--Medicare Supplement"
        }, {
          "system": "urn:oid:2.16.840.1.113883.3.221.5",
          "version": "9.2",
          "code": "3115",
          "display": "TRICARE Reserve Select"
        }, {
          "system": "urn:oid:2.16.840.1.113883.3.221.5",
          "version": "9.2",
          "code": "3116",
          "display": "Uniformed Services Family Health Plan (USFHP) -- HMO"
        }, {
          "system": "urn:oid:2.16.840.1.113883.3.221.5",
          "version": "9.2",
          "code": "3119",
          "display": "Department of Defense - (other)"
        }, {
          "system": "urn:oid:2.16.840.1.113883.3.221.5",
          "version": "9.2",
          "code": "312",
          "display": "Military Treatment Facility"
        }, {
          "system": "urn:oid:2.16.840.1.113883.3.221.5",
          "version": "9.2",
          "code": "3121",
          "display": "Enrolled Prime--HMO"
        }, {
          "system": "urn:oid:2.16.840.1.113883.3.221.5",
          "version": "9.2",
          "code": "3122",
          "display": "Non-enrolled Space Available"
        }, {
          "system": "urn:oid:2.16.840.1.113883.3.221.5",
          "version": "9.2",
          "code": "3123",
          "display": "TRICARE For Life (TFL)"
        }, {
          "system": "urn:oid:2.16.840.1.113883.3.221.5",
          "version": "9.2",
          "code": "313",
          "display": "Dental --Stand Alone"
        }, {
          "system": "urn:oid:2.16.840.1.113883.3.221.5",
          "version": "9.2",
          "code": "32",
          "display": "Department of Veterans Affairs"
        }, {
          "system": "urn:oid:2.16.840.1.113883.3.221.5",
          "version": "9.2",
          "code": "321",
          "display": "Veteran care-Care provided to Veterans"
        }, {
          "system": "urn:oid:2.16.840.1.113883.3.221.5",
          "version": "9.2",
          "code": "3211",
          "display": "Direct Care-Care provided in VA facilities"
        }, {
          "system": "urn:oid:2.16.840.1.113883.3.221.5",
          "version": "9.2",
          "code": "3212",
          "display": "Indirect Care-Care provided outside VA facilities"
        }, {
          "system": "urn:oid:2.16.840.1.113883.3.221.5",
          "version": "9.2",
          "code": "32121",
          "display": "Fee Basis"
        }, {
          "system": "urn:oid:2.16.840.1.113883.3.221.5",
          "version": "9.2",
          "code": "32122",
          "display": "Foreign Fee/Foreign Medical Program (FMP)"
        }, {
          "system": "urn:oid:2.16.840.1.113883.3.221.5",
          "version": "9.2",
          "code": "32123",
          "display": "Contract Nursing Home/Community Nursing Home"
        }, {
          "system": "urn:oid:2.16.840.1.113883.3.221.5",
          "version": "9.2",
          "code": "32124",
          "display": "State Veterans Home"
        }, {
          "system": "urn:oid:2.16.840.1.113883.3.221.5",
          "version": "9.2",
          "code": "32125",
          "display": "Sharing Agreements"
        }, {
          "system": "urn:oid:2.16.840.1.113883.3.221.5",
          "version": "9.2",
          "code": "32126",
          "display": "Other Federal Agency"
        }, {
          "system": "urn:oid:2.16.840.1.113883.3.221.5",
          "version": "9.2",
          "code": "32127",
          "display": "Dental Care"
        }, {
          "system": "urn:oid:2.16.840.1.113883.3.221.5",
          "version": "9.2",
          "code": "32128",
          "display": "Vision Care"
        }, {
          "system": "urn:oid:2.16.840.1.113883.3.221.5",
          "version": "9.2",
          "code": "322",
          "display": "Non-veteran care"
        }, {
          "system": "urn:oid:2.16.840.1.113883.3.221.5",
          "version": "9.2",
          "code": "3221",
          "display": "Civilian Health and Medical Program for the VA (CHAMPVA)"
        }, {
          "system": "urn:oid:2.16.840.1.113883.3.221.5",
          "version": "9.2",
          "code": "3222",
          "display": "Spina Bifida Health Care Program (SB)"
        }, {
          "system": "urn:oid:2.16.840.1.113883.3.221.5",
          "version": "9.2",
          "code": "3223",
          "display": "Children of Women Vietnam Veterans (CWVV)"
        }, {
          "system": "urn:oid:2.16.840.1.113883.3.221.5",
          "version": "9.2",
          "code": "3229",
          "display": "Other non-veteran care"
        }, {
          "system": "urn:oid:2.16.840.1.113883.3.221.5",
          "version": "9.2",
          "code": "33",
          "display": "Indian Health Service or Tribe"
        }, {
          "system": "urn:oid:2.16.840.1.113883.3.221.5",
          "version": "9.2",
          "code": "331",
          "display": "Indian Health Service - Regular"
        }, {
          "system": "urn:oid:2.16.840.1.113883.3.221.5",
          "version": "9.2",
          "code": "332",
          "display": "Indian Health Service - Contract"
        }, {
          "system": "urn:oid:2.16.840.1.113883.3.221.5",
          "version": "9.2",
          "code": "333",
          "display": "Indian Health Service - Managed Care"
        }, {
          "system": "urn:oid:2.16.840.1.113883.3.221.5",
          "version": "9.2",
          "code": "334",
          "display": "Indian Tribe - Sponsored Coverage"
        }, {
          "system": "urn:oid:2.16.840.1.113883.3.221.5",
          "version": "9.2",
          "code": "34",
          "display": "HRSA Program"
        }, {
          "system": "urn:oid:2.16.840.1.113883.3.221.5",
          "version": "9.2",
          "code": "341",
          "display": "Title V (MCH Block Grant)"
        }, {
          "system": "urn:oid:2.16.840.1.113883.3.221.5",
          "version": "9.2",
          "code": "342",
          "display": "Migrant Health Program"
        }, {
          "system": "urn:oid:2.16.840.1.113883.3.221.5",
          "version": "9.2",
          "code": "343",
          "display": "Ryan White Act"
        }, {
          "system": "urn:oid:2.16.840.1.113883.3.221.5",
          "version": "9.2",
          "code": "349",
          "display": "Other"
        }, {
          "system": "urn:oid:2.16.840.1.113883.3.221.5",
          "version": "9.2",
          "code": "35",
          "display": "Black Lung"
        }, {
          "system": "urn:oid:2.16.840.1.113883.3.221.5",
          "version": "9.2",
          "code": "36",
          "display": "State Government"
        }, {
          "system": "urn:oid:2.16.840.1.113883.3.221.5",
          "version": "9.2",
          "code": "361",
          "display": "State SCHIP program (codes for individual states)"
        }, {
          "system": "urn:oid:2.16.840.1.113883.3.221.5",
          "version": "9.2",
          "code": "362",
          "display": "Specific state programs (list/ local code)"
        }, {
          "system": "urn:oid:2.16.840.1.113883.3.221.5",
          "version": "9.2",
          "code": "369",
          "display": "State, not otherwise specified (other state)"
        }, {
          "system": "urn:oid:2.16.840.1.113883.3.221.5",
          "version": "9.2",
          "code": "37",
          "display": "Local Government"
        }, {
          "system": "urn:oid:2.16.840.1.113883.3.221.5",
          "version": "9.2",
          "code": "371",
          "display": "Local - Managed care"
        }, {
          "system": "urn:oid:2.16.840.1.113883.3.221.5",
          "version": "9.2",
          "code": "3711",
          "display": "HMO"
        }, {
          "system": "urn:oid:2.16.840.1.113883.3.221.5",
          "version": "9.2",
          "code": "3712",
          "display": "PPO"
        }, {
          "system": "urn:oid:2.16.840.1.113883.3.221.5",
          "version": "9.2",
          "code": "3713",
          "display": "POS"
        }, {
          "system": "urn:oid:2.16.840.1.113883.3.221.5",
          "version": "9.2",
          "code": "372",
          "display": "FFS/Indemnity"
        }, {
          "system": "urn:oid:2.16.840.1.113883.3.221.5",
          "version": "9.2",
          "code": "379",
          "display": "Local, not otherwise specified (other local, county)"
        }, {
          "system": "urn:oid:2.16.840.1.113883.3.221.5",
          "version": "9.2",
          "code": "38",
          "display": "Other Government (Federal, State, Local not specified)"
        }, {
          "system": "urn:oid:2.16.840.1.113883.3.221.5",
          "version": "9.2",
          "code": "381",
          "display": "Federal, State, Local not specified managed care"
        }, {
          "system": "urn:oid:2.16.840.1.113883.3.221.5",
          "version": "9.2",
          "code": "3811",
          "display": "Federal, State, Local not specified - HMO"
        }, {
          "system": "urn:oid:2.16.840.1.113883.3.221.5",
          "version": "9.2",
          "code": "3812",
          "display": "Federal, State, Local not specified - PPO"
        }, {
          "system": "urn:oid:2.16.840.1.113883.3.221.5",
          "version": "9.2",
          "code": "3813",
          "display": "Federal, State, Local not specified - POS"
        }, {
          "system": "urn:oid:2.16.840.1.113883.3.221.5",
          "version": "9.2",
          "code": "3819",
          "display": "Federal, State, Local not specified - not specified managed care"
        }, {
          "system": "urn:oid:2.16.840.1.113883.3.221.5",
          "version": "9.2",
          "code": "382",
          "display": "Federal, State, Local not specified - FFS"
        }, {
          "system": "urn:oid:2.16.840.1.113883.3.221.5",
          "version": "9.2",
          "code": "389",
          "display": "Federal, State, Local not specified - Other"
        }, {
          "system": "urn:oid:2.16.840.1.113883.3.221.5",
          "version": "9.2",
          "code": "39",
          "display": "Other Federal"
        }, {
          "system": "urn:oid:2.16.840.1.113883.3.221.5",
          "version": "9.2",
          "code": "391",
          "display": "Federal Employee Health Plan - Use when known"
        }, {
          "system": "urn:oid:2.16.840.1.113883.3.221.5",
          "version": "9.2",
          "code": "4",
          "display": "DEPARTMENTS OF CORRECTIONS"
        }, {
          "system": "urn:oid:2.16.840.1.113883.3.221.5",
          "version": "9.2",
          "code": "41",
          "display": "Corrections Federal"
        }, {
          "system": "urn:oid:2.16.840.1.113883.3.221.5",
          "version": "9.2",
          "code": "42",
          "display": "Corrections State"
        }, {
          "system": "urn:oid:2.16.840.1.113883.3.221.5",
          "version": "9.2",
          "code": "43",
          "display": "Corrections Local"
        }, {
          "system": "urn:oid:2.16.840.1.113883.3.221.5",
          "version": "9.2",
          "code": "44",
          "display": "Corrections Unknown Level"
        }, {
          "system": "urn:oid:2.16.840.1.113883.3.221.5",
          "version": "9.2",
          "code": "5",
          "display": "PRIVATE HEALTH INSURANCE"
        }, {
          "system": "urn:oid:2.16.840.1.113883.3.221.5",
          "version": "9.2",
          "code": "51",
          "display": "Managed Care (Private)"
        }, {
          "system": "urn:oid:2.16.840.1.113883.3.221.5",
          "version": "9.2",
          "code": "511",
          "display": "Commercial Managed Care - HMO"
        }, {
          "system": "urn:oid:2.16.840.1.113883.3.221.5",
          "version": "9.2",
          "code": "512",
          "display": "Commercial Managed Care - PPO"
        }, {
          "system": "urn:oid:2.16.840.1.113883.3.221.5",
          "version": "9.2",
          "code": "513",
          "display": "Commercial Managed Care - POS"
        }, {
          "system": "urn:oid:2.16.840.1.113883.3.221.5",
          "version": "9.2",
          "code": "514",
          "display": "Exclusive Provider Organization"
        }, {
          "system": "urn:oid:2.16.840.1.113883.3.221.5",
          "version": "9.2",
          "code": "515",
          "display": "Gatekeeper PPO (GPPO)"
        }, {
          "system": "urn:oid:2.16.840.1.113883.3.221.5",
          "version": "9.2",
          "code": "516",
          "display": "Commercial Managed Care - Pharmacy Benefit Manager"
        }, {
          "system": "urn:oid:2.16.840.1.113883.3.221.5",
          "version": "9.2",
          "code": "517",
          "display": "Commercial Managed Care - Dental"
        }, {
          "system": "urn:oid:2.16.840.1.113883.3.221.5",
          "version": "9.2",
          "code": "519",
          "display": "Managed Care, Other (non HMO)"
        }, {
          "system": "urn:oid:2.16.840.1.113883.3.221.5",
          "version": "9.2",
          "code": "52",
          "display": "Private Health Insurance - Indemnity"
        }, {
          "system": "urn:oid:2.16.840.1.113883.3.221.5",
          "version": "9.2",
          "code": "521",
          "display": "Commercial Indemnity"
        }, {
          "system": "urn:oid:2.16.840.1.113883.3.221.5",
          "version": "9.2",
          "code": "522",
          "display": "Self-insured (ERISA) Administrative Services Only (ASO) plan"
        }, {
          "system": "urn:oid:2.16.840.1.113883.3.221.5",
          "version": "9.2",
          "code": "523",
          "display": "Medicare supplemental policy (as second payer)"
        }, {
          "system": "urn:oid:2.16.840.1.113883.3.221.5",
          "version": "9.2",
          "code": "524",
          "display": "Indemnity Insurance - Dental"
        }, {
          "system": "urn:oid:2.16.840.1.113883.3.221.5",
          "version": "9.2",
          "code": "529",
          "display": "Private health insurance--other commercial Indemnity"
        }, {
          "system": "urn:oid:2.16.840.1.113883.3.221.5",
          "version": "9.2",
          "code": "53",
          "display": "Managed Care (private) or private health insurance (indemnity), not otherwise specified"
        }, {
          "system": "urn:oid:2.16.840.1.113883.3.221.5",
          "version": "9.2",
          "code": "54",
          "display": "Organized Delivery System"
        }, {
          "system": "urn:oid:2.16.840.1.113883.3.221.5",
          "version": "9.2",
          "code": "55",
          "display": "Small Employer Purchasing Group"
        }, {
          "system": "urn:oid:2.16.840.1.113883.3.221.5",
          "version": "9.2",
          "code": "56",
          "display": "Specialized Stand-Alone Plan"
        }, {
          "system": "urn:oid:2.16.840.1.113883.3.221.5",
          "version": "9.2",
          "code": "561",
          "display": "Dental"
        }, {
          "system": "urn:oid:2.16.840.1.113883.3.221.5",
          "version": "9.2",
          "code": "562",
          "display": "Vision"
        }, {
          "system": "urn:oid:2.16.840.1.113883.3.221.5",
          "version": "9.2",
          "code": "59",
          "display": "Other Private Insurance"
        }, {
          "system": "urn:oid:2.16.840.1.113883.3.221.5",
          "version": "9.2",
          "code": "6",
          "display": "BLUE CROSS/BLUE SHIELD"
        }, {
          "system": "urn:oid:2.16.840.1.113883.3.221.5",
          "version": "9.2",
          "code": "61",
          "display": "BC Managed Care"
        }, {
          "system": "urn:oid:2.16.840.1.113883.3.221.5",
          "version": "9.2",
          "code": "611",
          "display": "BC Managed Care - HMO"
        }, {
          "system": "urn:oid:2.16.840.1.113883.3.221.5",
          "version": "9.2",
          "code": "612",
          "display": "BC Managed Care - PPO"
        }, {
          "system": "urn:oid:2.16.840.1.113883.3.221.5",
          "version": "9.2",
          "code": "613",
          "display": "BC Managed Care - POS"
        }, {
          "system": "urn:oid:2.16.840.1.113883.3.221.5",
          "version": "9.2",
          "code": "614",
          "display": "BC Managed Care - Dental"
        }, {
          "system": "urn:oid:2.16.840.1.113883.3.221.5",
          "version": "9.2",
          "code": "619",
          "display": "BC Managed Care - Other"
        }, {
          "system": "urn:oid:2.16.840.1.113883.3.221.5",
          "version": "9.2",
          "code": "62",
          "display": "BC Insurance Indemnity"
        }, {
          "system": "urn:oid:2.16.840.1.113883.3.221.5",
          "version": "9.2",
          "code": "621",
          "display": "BC Indemnity"
        }, {
          "system": "urn:oid:2.16.840.1.113883.3.221.5",
          "version": "9.2",
          "code": "622",
          "display": "BC Self-insured (ERISA) Administrative Services Only (ASO)Plan"
        }, {
          "system": "urn:oid:2.16.840.1.113883.3.221.5",
          "version": "9.2",
          "code": "623",
          "display": "BC Medicare Supplemental Plan"
        }, {
          "system": "urn:oid:2.16.840.1.113883.3.221.5",
          "version": "9.2",
          "code": "629",
          "display": "BC Indemnity - Dental"
        }, {
          "system": "urn:oid:2.16.840.1.113883.3.221.5",
          "version": "9.2",
          "code": "7",
          "display": "MANAGED CARE, UNSPECIFIED (to be used only if one can't distinguish public from private)"
        }, {
          "system": "urn:oid:2.16.840.1.113883.3.221.5",
          "version": "9.2",
          "code": "71",
          "display": "HMO"
        }, {
          "system": "urn:oid:2.16.840.1.113883.3.221.5",
          "version": "9.2",
          "code": "72",
          "display": "PPO"
        }, {
          "system": "urn:oid:2.16.840.1.113883.3.221.5",
          "version": "9.2",
          "code": "73",
          "display": "POS"
        }, {
          "system": "urn:oid:2.16.840.1.113883.3.221.5",
          "version": "9.2",
          "code": "79",
          "display": "Other Managed Care"
        }, {
          "system": "urn:oid:2.16.840.1.113883.3.221.5",
          "version": "9.2",
          "code": "8",
          "display": "NO PAYMENT from an Organization/Agency/Program/Private Payer Listed"
        }, {
          "system": "urn:oid:2.16.840.1.113883.3.221.5",
          "version": "9.2",
          "code": "81",
          "display": "Self-pay (Includes applicants for insurance and Medicaid applicants)"
        }, {
          "system": "urn:oid:2.16.840.1.113883.3.221.5",
          "version": "9.2",
          "code": "82",
          "display": "No Charge"
        }, {
          "system": "urn:oid:2.16.840.1.113883.3.221.5",
          "version": "9.2",
          "code": "821",
          "display": "Charity"
        }, {
          "system": "urn:oid:2.16.840.1.113883.3.221.5",
          "version": "9.2",
          "code": "822",
          "display": "Professional Courtesy"
        }, {
          "system": "urn:oid:2.16.840.1.113883.3.221.5",
          "version": "9.2",
          "code": "823",
          "display": "Research/Clinical Trial"
        }, {
          "system": "urn:oid:2.16.840.1.113883.3.221.5",
          "version": "9.2",
          "code": "83",
          "display": "Refusal to Pay/Bad Debt"
        }, {
          "system": "urn:oid:2.16.840.1.113883.3.221.5",
          "version": "9.2",
          "code": "84",
          "display": "Hill Burton Free Care"
        }, {
          "system": "urn:oid:2.16.840.1.113883.3.221.5",
          "version": "9.2",
          "code": "85",
          "display": "Research/Donor"
        }, {
          "system": "urn:oid:2.16.840.1.113883.3.221.5",
          "version": "9.2",
          "code": "89",
          "display": "No Payment, Other"
        }, {
          "system": "urn:oid:2.16.840.1.113883.3.221.5",
          "version": "9.2",
          "code": "9",
          "display": "MISCELLANEOUS/OTHER"
        }, {
          "system": "urn:oid:2.16.840.1.113883.3.221.5",
          "version": "9.2",
          "code": "91",
          "display": "Foreign National"
        }, {
          "system": "urn:oid:2.16.840.1.113883.3.221.5",
          "version": "9.2",
          "code": "92",
          "display": "Other (Non-government)"
        }, {
          "system": "urn:oid:2.16.840.1.113883.3.221.5",
          "version": "9.2",
          "code": "93",
          "display": "Disability Insurance"
        }, {
          "system": "urn:oid:2.16.840.1.113883.3.221.5",
          "version": "9.2",
          "code": "94",
          "display": "Long-term Care Insurance"
        }, {
          "system": "urn:oid:2.16.840.1.113883.3.221.5",
          "version": "9.2",
          "code": "95",
          "display": "Worker's Compensation"
        }, {
          "system": "urn:oid:2.16.840.1.113883.3.221.5",
          "version": "9.2",
          "code": "951",
          "display": "Worker's Comp HMO"
        }, {
          "system": "urn:oid:2.16.840.1.113883.3.221.5",
          "version": "9.2",
          "code": "953",
          "display": "Worker's Comp Fee-for-Service"
        }, {
          "system": "urn:oid:2.16.840.1.113883.3.221.5",
          "version": "9.2",
          "code": "954",
          "display": "Worker's Comp Other Managed Care"
        }, {
          "system": "urn:oid:2.16.840.1.113883.3.221.5",
          "version": "9.2",
          "code": "959",
          "display": "Worker's Comp, Other unspecified"
        }, {
          "system": "urn:oid:2.16.840.1.113883.3.221.5",
          "version": "9.2",
          "code": "96",
          "display": "Auto Insurance (includes no fault)"
        }, {
          "system": "urn:oid:2.16.840.1.113883.3.221.5",
          "version": "9.2",
          "code": "97",
          "display": "Legal Liability / Liability Insurance"
        }, {
          "system": "urn:oid:2.16.840.1.113883.3.221.5",
          "version": "9.2",
          "code": "98",
          "display": "Other specified but not otherwise classifiable (includes Hospice - Unspecified plan)"
        }, {
          "system": "urn:oid:2.16.840.1.113883.3.221.5",
          "version": "9.2",
          "code": "99",
          "display": "No Typology Code available for payment source"
        }, {
          "system": "urn:oid:2.16.840.1.113883.3.221.5",
          "version": "9.2",
          "code": "9999",
          "display": "Unavailable / No Payer Specified / Blank"
        } ]
      }
    },
    "request": {
      "method": "PUT",
      "url": "ValueSet/2.16.840.1.114222.4.11.3591"
    }
  }, {
    "resource": {
      "resourceType": "Encounter",
      "id": "Encounter-denex-EXM104",
      "meta": {
        "profile": [ "http://hl7.org/fhir/us/core/StructureDefinition/us-core-encounter" ]
      },
      "status": "finished",
      "class": {
        "system": "http://terminology.hl7.org/CodeSystem/v3-ActCode",
        "code": "IMP",
        "display": "inpatient encounter"
      },
      "type": [ {
        "coding": [ {
          "system": "http://snomed.info/sct",
          "code": "32485007",
          "display": "Hospital admission (procedure)"
        } ]
      } ],
      "subject": {
        "reference": "Patient/Patient-denex-EXM104"
      },
      "period": {
        "start": "2019-08-21T00:00:00-06:00",
        "end": "2019-12-19T08:15:00-07:00"
      },
      "diagnosis": [ {
        "condition": {
          "reference": "Condition/Condition-denex-EXM104"
        },
        "use": {
          "coding": [ {
            "system": "http://hl7.org/fhir/diagnosis-role",
            "code": "billing",
            "display": "Billing"
          } ]
        },
        "rank": 1
      } ]
    },
    "request": {
      "method": "PUT",
      "url": "Encounter/Encounter-denex-EXM104"
    }
  }, {
    "resource": {
      "resourceType": "Measure",
      "id": "DischargedonAntithromboticTherapyFHIR",
      "meta": {
        "versionId": "24",
        "lastUpdated": "2021-08-24T13:12:30.000-06:00",
        "source": "#q1Mp1RX4PUIGipJl",
        "profile": [ "http://hl7.org/fhir/us/cqfmeasures/StructureDefinition/proportion-measure-cqfm", "http://hl7.org/fhir/us/cqfmeasures/StructureDefinition/computable-measure-cqfm" ]
      },
      "language": "en",
      "contained": [ {
        "resourceType": "Library",
        "id": "effective-data-requirements",
        "extension": [ {
          "url": "http://hl7.org/fhir/us/cqfmeasures/StructureDefinition/cqfm-directReferenceCode",
          "valueCoding": {
            "system": "http://terminology.hl7.org/CodeSystem/medicationrequest-category",
            "code": "community",
            "display": "Community"
          }
        }, {
          "url": "http://hl7.org/fhir/us/cqfmeasures/StructureDefinition/cqfm-directReferenceCode",
          "valueCoding": {
            "system": "http://terminology.hl7.org/CodeSystem/medicationrequest-category",
            "code": "discharge",
            "display": "Discharge"
          }
        }, {
          "url": "http://hl7.org/fhir/us/cqfmeasures/StructureDefinition/cqfm-logicDefinition",
          "extension": [ {
            "url": "libraryName",
            "valueString": "TJCOverallFHIR"
          }, {
            "url": "name",
            "valueString": "Non Elective Inpatient Encounter"
          }, {
            "url": "statement",
            "valueString": "// Translator issue with 1.4.9-SNAPSHOT: https://github.com/cqframework/clinical_quality_language/issues/511\ndefine \"Non Elective Inpatient Encounter\":\n  [\"Encounter\": \"Non-Elective Inpatient Encounter\"] NonElectiveEncounter\n                  \t\twhere Global.\"LengthInDays\"(NonElectiveEncounter.period) <= 120\n                  \t\t\tand NonElectiveEncounter.period ends during day of \"Measurement Period\""
          }, {
            "url": "displaySequence",
            "valueInteger": 0
          } ]
        }, {
          "url": "http://hl7.org/fhir/us/cqfmeasures/StructureDefinition/cqfm-logicDefinition",
          "extension": [ {
            "url": "libraryName",
            "valueString": "TJCOverallFHIR"
          }, {
            "url": "name",
            "valueString": "All Stroke Encounter"
          }, {
            "url": "statement",
            "valueString": "define \"All Stroke Encounter\":\n  \"Non Elective Inpatient Encounter\" NonElectiveEncounter\n                      where Global.PrincipalDiagnosis(NonElectiveEncounter).code in \"Hemorrhagic Stroke\"\n                        or Global.PrincipalDiagnosis(NonElectiveEncounter).code in \"Ischemic Stroke\""
          }, {
            "url": "displaySequence",
            "valueInteger": 1
          } ]
        }, {
          "url": "http://hl7.org/fhir/us/cqfmeasures/StructureDefinition/cqfm-logicDefinition",
          "extension": [ {
            "url": "libraryName",
            "valueString": "TJCOverallFHIR"
          }, {
            "url": "name",
            "valueString": "Encounter with Principal Diagnosis and Age"
          }, {
            "url": "statement",
            "valueString": "define \"Encounter with Principal Diagnosis and Age\":\n  \"All Stroke Encounter\" AllStrokeEncounter\n                  \t\twith [\"Patient\"] BirthDate\n                  \t\t\tsuch that AgeInYearsAt(start of AllStrokeEncounter.period) >= 18"
          }, {
            "url": "displaySequence",
            "valueInteger": 2
          } ]
        }, {
          "url": "http://hl7.org/fhir/us/cqfmeasures/StructureDefinition/cqfm-logicDefinition",
          "extension": [ {
            "url": "libraryName",
            "valueString": "TJCOverallFHIR"
          }, {
            "url": "name",
            "valueString": "Ischemic Stroke Encounter"
          }, {
            "url": "statement",
            "valueString": "define \"Ischemic Stroke Encounter\":\n  \"Encounter with Principal Diagnosis and Age\" EncounterWithAge\n                  \t\twhere Global.PrincipalDiagnosis(EncounterWithAge).code in \"Ischemic Stroke\""
          }, {
            "url": "displaySequence",
            "valueInteger": 3
          } ]
        }, {
          "url": "http://hl7.org/fhir/us/cqfmeasures/StructureDefinition/cqfm-logicDefinition",
          "extension": [ {
            "url": "libraryName",
            "valueString": "DischargedonAntithromboticTherapyFHIR"
          }, {
            "url": "name",
            "valueString": "Antithrombotic Therapy at Discharge"
          }, {
            "url": "statement",
            "valueString": "define \"Antithrombotic Therapy at Discharge\":\n  [\"MedicationRequest\": medication in \"Antithrombotic Therapy\"] Antithrombotic\n    where Antithrombotic.doNotPerform is not true\n      and exists ( Antithrombotic.category C\n          where FHIRHelpers.ToConcept ( C ) ~ Global.\"Community\"\n            or FHIRHelpers.ToConcept ( C ) ~ Global.\"Discharge\"\n      )\n      and Antithrombotic.status in { 'active', 'completed' }\n      and Antithrombotic.intent = 'order'"
          }, {
            "url": "displaySequence",
            "valueInteger": 4
          } ]
        }, {
          "url": "http://hl7.org/fhir/us/cqfmeasures/StructureDefinition/cqfm-logicDefinition",
          "extension": [ {
            "url": "libraryName",
            "valueString": "DischargedonAntithromboticTherapyFHIR"
          }, {
            "url": "name",
            "valueString": "Numerator"
          }, {
            "url": "statement",
            "valueString": "define \"Numerator\":\n  TJC.\"Ischemic Stroke Encounter\" IschemicStrokeEncounter\n      with \"Antithrombotic Therapy at Discharge\" DischargeAntithrombotic\n        such that DischargeAntithrombotic.authoredOn during IschemicStrokeEncounter.period"
          }, {
            "url": "displaySequence",
            "valueInteger": 5
          } ]
        }, {
          "url": "http://hl7.org/fhir/us/cqfmeasures/StructureDefinition/cqfm-logicDefinition",
          "extension": [ {
            "url": "libraryName",
            "valueString": "DischargedonAntithromboticTherapyFHIR"
          }, {
            "url": "name",
            "valueString": "Denominator"
          }, {
            "url": "statement",
            "valueString": "define \"Denominator\":\n  TJC.\"Ischemic Stroke Encounter\""
          }, {
            "url": "displaySequence",
            "valueInteger": 6
          } ]
        }, {
          "url": "http://hl7.org/fhir/us/cqfmeasures/StructureDefinition/cqfm-logicDefinition",
          "extension": [ {
            "url": "libraryName",
            "valueString": "DischargedonAntithromboticTherapyFHIR"
          }, {
            "url": "name",
            "valueString": "Initial Population"
          }, {
            "url": "statement",
            "valueString": "define \"Initial Population\":\n  TJC.\"Encounter with Principal Diagnosis and Age\""
          }, {
            "url": "displaySequence",
            "valueInteger": 7
          } ]
        }, {
          "url": "http://hl7.org/fhir/us/cqfmeasures/StructureDefinition/cqfm-logicDefinition",
          "extension": [ {
            "url": "libraryName",
            "valueString": "TJCOverallFHIR"
          }, {
            "url": "name",
            "valueString": "Ischemic Stroke Encounters with Discharge Disposition"
          }, {
            "url": "statement",
            "valueString": "define \"Ischemic Stroke Encounters with Discharge Disposition\":\n  \"Ischemic Stroke Encounter\" IschemicStrokeEncounter\n                  \t\twhere IschemicStrokeEncounter.hospitalization.dischargeDisposition in \"Discharge To Acute Care Facility\"\n                  \t\t\tor IschemicStrokeEncounter.hospitalization.dischargeDisposition in \"Left Against Medical Advice\"\n                  \t\t\tor IschemicStrokeEncounter.hospitalization.dischargeDisposition in \"Patient Expired\"\n                  \t\t\tor IschemicStrokeEncounter.hospitalization.dischargeDisposition in \"Discharged to Home for Hospice Care\"\n                  \t\t\tor IschemicStrokeEncounter.hospitalization.dischargeDisposition in \"Discharged to Health Care Facility for Hospice Care\""
          }, {
            "url": "displaySequence",
            "valueInteger": 8
          } ]
        }, {
          "url": "http://hl7.org/fhir/us/cqfmeasures/StructureDefinition/cqfm-logicDefinition",
          "extension": [ {
            "url": "libraryName",
            "valueString": "TJCOverallFHIR"
          }, {
            "url": "name",
            "valueString": "Intervention Comfort Measures"
          }, {
            "url": "statement",
            "valueString": "define \"Intervention Comfort Measures\":\n  ( [\"ServiceRequest\": \"Comfort Measures\"] P\n          where P.intent = 'order'\n      )\n        union ( [\"Procedure\": \"Comfort Measures\"] InterventionPerformed\n            where InterventionPerformed.status in { 'completed', 'in-progress' }\n        )"
          }, {
            "url": "displaySequence",
            "valueInteger": 9
          } ]
        }, {
          "url": "http://hl7.org/fhir/us/cqfmeasures/StructureDefinition/cqfm-logicDefinition",
          "extension": [ {
            "url": "libraryName",
            "valueString": "TJCOverallFHIR"
          }, {
            "url": "name",
            "valueString": "Encounter with Comfort Measures during Hospitalization"
          }, {
            "url": "statement",
            "valueString": "define \"Encounter with Comfort Measures during Hospitalization\":\n  \"Ischemic Stroke Encounter\" IschemicStrokeEncounter\n        with \"Intervention Comfort Measures\" ComfortMeasure\n          such that Coalesce((start of Global.\"Normalize Interval\"(ComfortMeasure.performed)), ComfortMeasure.authoredOn)during Global.\"HospitalizationWithObservation\" ( IschemicStrokeEncounter )"
          }, {
            "url": "displaySequence",
            "valueInteger": 10
          } ]
        }, {
          "url": "http://hl7.org/fhir/us/cqfmeasures/StructureDefinition/cqfm-logicDefinition",
          "extension": [ {
            "url": "libraryName",
            "valueString": "DischargedonAntithromboticTherapyFHIR"
          }, {
            "url": "name",
            "valueString": "Denominator Exclusions"
          }, {
            "url": "statement",
            "valueString": "define \"Denominator Exclusions\":\n  TJC.\"Ischemic Stroke Encounters with Discharge Disposition\"\n                \t\tunion TJC.\"Encounter with Comfort Measures during Hospitalization\""
          }, {
            "url": "displaySequence",
            "valueInteger": 11
          } ]
        }, {
          "url": "http://hl7.org/fhir/us/cqfmeasures/StructureDefinition/cqfm-logicDefinition",
          "extension": [ {
            "url": "libraryName",
            "valueString": "DischargedonAntithromboticTherapyFHIR"
          }, {
            "url": "name",
            "valueString": "Antithrombotic Not Given at Discharge"
          }, {
            "url": "statement",
            "valueString": "define \"Antithrombotic Not Given at Discharge\":\n  [\"MedicationRequest\": medication in \"Antithrombotic Therapy\"] NoAntithromboticDischarge\n    where NoAntithromboticDischarge.doNotPerform is true\n      and ( NoAntithromboticDischarge.reasonCode in \"Medical Reason\"\n          or NoAntithromboticDischarge.reasonCode in \"Patient Refusal\"\n      )\n      and exists ( NoAntithromboticDischarge.category C\n          where FHIRHelpers.ToConcept ( C ) ~ Global.\"Community\"\n            or FHIRHelpers.ToConcept ( C ) ~ Global.\"Discharge\"\n      )\n      and NoAntithromboticDischarge.status in { 'completed', 'cancelled' }\n      and NoAntithromboticDischarge.intent = 'order'"
          }, {
            "url": "displaySequence",
            "valueInteger": 12
          } ]
        }, {
          "url": "http://hl7.org/fhir/us/cqfmeasures/StructureDefinition/cqfm-logicDefinition",
          "extension": [ {
            "url": "libraryName",
            "valueString": "DischargedonAntithromboticTherapyFHIR"
          }, {
            "url": "name",
            "valueString": "Encounter With No Antithrombotic At Discharge"
          }, {
            "url": "statement",
            "valueString": "define \"Encounter With No Antithrombotic At Discharge\":\n  TJC.\"Ischemic Stroke Encounter\" IschemicStrokeEncounter\n                \twith \"Antithrombotic Not Given at Discharge\" NoDischargeAntithrombotic\n                \tsuch that NoDischargeAntithrombotic.authoredOn during IschemicStrokeEncounter.period"
          }, {
            "url": "displaySequence",
            "valueInteger": 13
          } ]
        }, {
          "url": "http://hl7.org/fhir/us/cqfmeasures/StructureDefinition/cqfm-logicDefinition",
          "extension": [ {
            "url": "libraryName",
            "valueString": "DischargedonAntithromboticTherapyFHIR"
          }, {
            "url": "name",
            "valueString": "Pharmacological Contraindications for Antithrombotic Therapy at Discharge"
          }, {
            "url": "statement",
            "valueString": "define \"Pharmacological Contraindications for Antithrombotic Therapy at Discharge\":\n  [\"MedicationRequest\": medication in \"Pharmacological Contraindications For Antithrombotic Therapy\"] Pharmacological\n    where Pharmacological.doNotPerform is not true\n      and exists ( Pharmacological.category C\n          where FHIRHelpers.ToConcept ( C ) ~ Global.\"Community\"\n            or FHIRHelpers.ToConcept ( C ) ~ Global.\"Discharge\"\n      )\n      and Pharmacological.status in { 'active', 'completed' }\n      and Pharmacological.intent = 'order'"
          }, {
            "url": "displaySequence",
            "valueInteger": 14
          } ]
        }, {
          "url": "http://hl7.org/fhir/us/cqfmeasures/StructureDefinition/cqfm-logicDefinition",
          "extension": [ {
            "url": "libraryName",
            "valueString": "DischargedonAntithromboticTherapyFHIR"
          }, {
            "url": "name",
            "valueString": "Encounter With Pharmacological Contraindications for Antithrombotic Therapy at Discharge"
          }, {
            "url": "statement",
            "valueString": "define \"Encounter With Pharmacological Contraindications for Antithrombotic Therapy at Discharge\":\n  TJC.\"Ischemic Stroke Encounter\" IschemicStrokeEncounter\n                    with \"Pharmacological Contraindications for Antithrombotic Therapy at Discharge\" DischargePharmacological\n                      such that DischargePharmacological.authoredOn during IschemicStrokeEncounter.period"
          }, {
            "url": "displaySequence",
            "valueInteger": 15
          } ]
        }, {
          "url": "http://hl7.org/fhir/us/cqfmeasures/StructureDefinition/cqfm-logicDefinition",
          "extension": [ {
            "url": "libraryName",
            "valueString": "DischargedonAntithromboticTherapyFHIR"
          }, {
            "url": "name",
            "valueString": "Denominator Exceptions"
          }, {
            "url": "statement",
            "valueString": "define \"Denominator Exceptions\":\n  \"Encounter With No Antithrombotic At Discharge\"\n                \t\tunion \"Encounter With Pharmacological Contraindications for Antithrombotic Therapy at Discharge\""
          }, {
            "url": "displaySequence",
            "valueInteger": 16
          } ]
        } ],
        "status": "active",
        "type": {
          "coding": [ {
            "system": "http://terminology.hl7.org/CodeSystem/library-type",
            "code": "module-definition"
          } ]
        },
        "relatedArtifact": [ {
          "type": "depends-on",
          "display": "Library TJC",
          "resource": "http://ecqi.healthit.gov/ecqms/Library/TJCOverallFHIR|1.8.000"
        }, {
          "type": "depends-on",
          "display": "Library Global",
          "resource": "http://ecqi.healthit.gov/ecqms/Library/MATGlobalCommonFunctionsFHIR4|6.1.000"
        }, {
          "type": "depends-on",
          "display": "Library FHIRHelpers",
          "resource": "http://ecqi.healthit.gov/ecqms/Library/FHIRHelpers|4.0.001"
        }, {
          "type": "depends-on",
          "display": "Code system MedicationRequestCategory",
          "resource": "http://terminology.hl7.org/CodeSystem/medicationrequest-category"
        }, {
          "type": "depends-on",
          "display": "Value set Non-Elective Inpatient Encounter",
          "resource": "http://cts.nlm.nih.gov/fhir/ValueSet/2.16.840.1.113883.3.117.1.7.1.424"
        }, {
          "type": "depends-on",
          "display": "Value set Hemorrhagic Stroke",
          "resource": "http://cts.nlm.nih.gov/fhir/ValueSet/2.16.840.1.113883.3.117.1.7.1.212"
        }, {
          "type": "depends-on",
          "display": "Value set Ischemic Stroke",
          "resource": "http://cts.nlm.nih.gov/fhir/ValueSet/2.16.840.1.113883.3.117.1.7.1.247"
        }, {
          "type": "depends-on",
          "display": "Value set Antithrombotic Therapy",
          "resource": "http://cts.nlm.nih.gov/fhir/ValueSet/2.16.840.1.113883.3.117.1.7.1.201"
        }, {
          "type": "depends-on",
          "display": "Value set Discharge To Acute Care Facility",
          "resource": "http://cts.nlm.nih.gov/fhir/ValueSet/2.16.840.1.113883.3.117.1.7.1.87"
        }, {
          "type": "depends-on",
          "display": "Value set Left Against Medical Advice",
          "resource": "http://cts.nlm.nih.gov/fhir/ValueSet/2.16.840.1.113883.3.117.1.7.1.308"
        }, {
          "type": "depends-on",
          "display": "Value set Patient Expired",
          "resource": "http://cts.nlm.nih.gov/fhir/ValueSet/2.16.840.1.113883.3.117.1.7.1.309"
        }, {
          "type": "depends-on",
          "display": "Value set Discharged to Home for Hospice Care",
          "resource": "http://cts.nlm.nih.gov/fhir/ValueSet/2.16.840.1.113883.3.117.1.7.1.209"
        }, {
          "type": "depends-on",
          "display": "Value set Discharged to Health Care Facility for Hospice Care",
          "resource": "http://cts.nlm.nih.gov/fhir/ValueSet/2.16.840.1.113883.3.117.1.7.1.207"
        }, {
          "type": "depends-on",
          "display": "Value set Comfort Measures",
          "resource": "http://cts.nlm.nih.gov/fhir/ValueSet/1.3.6.1.4.1.33895.1.3.0.45"
        }, {
          "type": "depends-on",
          "display": "Value set Observation Services",
          "resource": "http://cts.nlm.nih.gov/fhir/ValueSet/2.16.840.1.113762.1.4.1111.143"
        }, {
          "type": "depends-on",
          "display": "Value set Emergency Department Visit",
          "resource": "http://cts.nlm.nih.gov/fhir/ValueSet/2.16.840.1.113883.3.117.1.7.1.292"
        }, {
          "type": "depends-on",
          "display": "Value set Medical Reason",
          "resource": "http://cts.nlm.nih.gov/fhir/ValueSet/2.16.840.1.113883.3.117.1.7.1.473"
        }, {
          "type": "depends-on",
          "display": "Value set Patient Refusal",
          "resource": "http://cts.nlm.nih.gov/fhir/ValueSet/2.16.840.1.113883.3.117.1.7.1.93"
        }, {
          "type": "depends-on",
          "display": "Value set Pharmacological Contraindications For Antithrombotic Therapy",
          "resource": "http://cts.nlm.nih.gov/fhir/ValueSet/2.16.840.1.113762.1.4.1110.52"
        } ],
        "parameter": [ {
          "name": "Measurement Period",
          "use": "in",
          "min": 0,
          "max": "1",
          "type": "Period"
        }, {
          "name": "Numerator",
          "use": "out",
          "min": 0,
          "max": "*",
          "type": "Encounter"
        }, {
          "name": "Denominator",
          "use": "out",
          "min": 0,
          "max": "*",
          "type": "Encounter"
        }, {
          "name": "Initial Population",
          "use": "out",
          "min": 0,
          "max": "*",
          "type": "Encounter"
        }, {
          "name": "Denominator Exclusions",
          "use": "out",
          "min": 0,
          "max": "*",
          "type": "Encounter"
        }, {
          "name": "Denominator Exceptions",
          "use": "out",
          "min": 0,
          "max": "*",
          "type": "Encounter"
        } ],
        "dataRequirement": [ {
          "type": "Encounter",
          "profile": [ "http://hl7.org/fhir/StructureDefinition/Encounter" ],
          "mustSupport": [ "type", "period" ],
          "codeFilter": [ {
            "path": "type",
            "valueSet": "http://cts.nlm.nih.gov/fhir/ValueSet/2.16.840.1.113883.3.117.1.7.1.424"
          } ]
        }, {
          "type": "Encounter",
          "profile": [ "http://hl7.org/fhir/StructureDefinition/Encounter" ],
          "mustSupport": [ "type", "period" ],
          "codeFilter": [ {
            "path": "type",
            "valueSet": "http://cts.nlm.nih.gov/fhir/ValueSet/2.16.840.1.113762.1.4.1111.143"
          } ]
        }, {
          "type": "Encounter",
          "profile": [ "http://hl7.org/fhir/StructureDefinition/Encounter" ],
          "mustSupport": [ "type", "period" ],
          "codeFilter": [ {
            "path": "type",
            "valueSet": "http://cts.nlm.nih.gov/fhir/ValueSet/2.16.840.1.113883.3.117.1.7.1.292"
          } ]
        }, {
          "type": "Condition",
          "profile": [ "http://hl7.org/fhir/StructureDefinition/Condition" ],
          "mustSupport": [ "id" ]
        }, {
          "type": "Patient",
          "profile": [ "http://hl7.org/fhir/StructureDefinition/Patient" ]
        }, {
          "type": "MedicationRequest",
          "profile": [ "http://hl7.org/fhir/StructureDefinition/MedicationRequest" ],
          "mustSupport": [ "medication", "doNotPerform", "category", "status", "intent", "authoredOn", "reasonCode" ],
          "codeFilter": [ {
            "path": "medication",
            "valueSet": "http://cts.nlm.nih.gov/fhir/ValueSet/2.16.840.1.113883.3.117.1.7.1.201"
          } ]
        }, {
          "type": "MedicationRequest",
          "profile": [ "http://hl7.org/fhir/StructureDefinition/MedicationRequest" ],
          "mustSupport": [ "medication", "doNotPerform", "category", "status", "intent", "authoredOn" ],
          "codeFilter": [ {
            "path": "medication",
            "valueSet": "http://cts.nlm.nih.gov/fhir/ValueSet/2.16.840.1.113762.1.4.1110.52"
          } ]
        }, {
          "type": "ServiceRequest",
          "profile": [ "http://hl7.org/fhir/StructureDefinition/ServiceRequest" ],
          "mustSupport": [ "code", "intent" ],
          "codeFilter": [ {
            "path": "code",
            "valueSet": "http://cts.nlm.nih.gov/fhir/ValueSet/1.3.6.1.4.1.33895.1.3.0.45"
          } ]
        }, {
          "type": "Procedure",
          "profile": [ "http://hl7.org/fhir/StructureDefinition/Procedure" ],
          "mustSupport": [ "code", "status" ],
          "codeFilter": [ {
            "path": "code",
            "valueSet": "http://cts.nlm.nih.gov/fhir/ValueSet/1.3.6.1.4.1.33895.1.3.0.45"
          } ]
        } ]
      } ],
      "extension": [ {
        "url": "http://hl7.org/fhir/us/cqfmeasures/StructureDefinition/cqfm-populationBasis",
        "valueCode": "Encounter"
      }, {
        "url": "http://hl7.org/fhir/us/cqfmeasures/StructureDefinition/cqfm-softwaresystem",
        "valueReference": {
          "reference": "Device/cqf-tooling"
        }
      }, {
        "id": "effective-data-requirements",
        "url": "http://hl7.org/fhir/us/cqfmeasures/StructureDefinition/cqfm-effectiveDataRequirements",
        "valueReference": {
          "reference": "#effective-data-requirements"
        }
      } ],
      "url": "http://ecqi.healthit.gov/ecqms/Measure/DischargedonAntithromboticTherapyFHIR",
      "identifier": [ {
        "use": "official",
        "system": "http://hl7.org/fhir/cqi/ecqm/Measure/Identifier/guid",
        "value": "755216b2-5fa4-474d-bb29-ae8eaa209460"
      }, {
        "use": "official",
        "system": "http://hl7.org/fhir/cqi/ecqm/Measure/Identifier/cms",
        "value": "1095FHIR"
      } ],
      "version": "2.0.012",
      "name": "DischargedonAntithromboticTherapyFHIR",
      "title": "Discharged on Antithrombotic Therapy FHIR",
      "status": "draft",
      "experimental": false,
      "date": "2022-04-18T07:44:38-06:00",
      "publisher": "The Joint Commission",
      "contact": [ {
        "telecom": [ {
          "system": "url",
          "value": "https://cms.gov"
        } ]
      } ],
      "description": "Ischemic stroke patients prescribed or continuing to take antithrombotic therapy at hospital discharge",
      "purpose": "Unknown",
      "copyright": "Measure specifications are in the Public Domain\n\nLOINC(R) copyright 2004-2020 Regenstrief Institute, Inc. \nThis material contains SNOMED Clinical Terms(R) (SNOMED CT[R]) copyright 2004-2020 International Health Terminology Standards Development Organisation. All Rights Reserved.",
      "effectivePeriod": {
        "start": "2022-01-01",
        "end": "2022-12-31"
      },
      "library": [ "http://ecqi.healthit.gov/ecqms/Library/DischargedonAntithromboticTherapyFHIR" ],
      "disclaimer": "These performance measures are not clinical guidelines and do not establish a standard of medical care, and have not been tested for all potential applications. The measures and specifications are provided without warranty.",
      "scoring": {
        "coding": [ {
          "system": "http://terminology.hl7.org/CodeSystem/measure-scoring",
          "code": "proportion",
          "display": "Proportion"
        } ]
      },
      "type": [ {
        "coding": [ {
          "system": "http://terminology.hl7.org/CodeSystem/measure-type",
          "code": "process"
        } ]
      } ],
      "rationale": "The effectiveness of antithrombotic agents in reducing stroke mortality, stroke-related morbidity and recurrence rates has been studied in several large clinical trials. While the use of these agents for patients with acute ischemic stroke and transient ischemic attacks continues to be the subject of study, substantial evidence is available from completed studies. Data at this time suggest that antithrombotic therapy should be prescribed at discharge following acute ischemic stroke to reduce stroke mortality and morbidity as long as no contraindications exist.\n\nFor patients with a stroke due to a cardioembolic source (e.g. atrial fibrillation, mechanical heart valve), warfarin is recommended unless contraindicated. In recent years, novel oral anticoagulant agents (NOACs) have been developed and approved by the U.S. Food and Drug Administration (FDA) for stroke prevention, and may be considered as an alternative to warfarin for select patients. Anticoagulation therapy is not generally recommended for secondary stroke prevention in patients presumed to have a non-cardioembolic stroke.\nAnticoagulants at doses to prevent venous thromboembolism are insufficient antithrombotic therapy to prevent recurrent ischemic stroke or TIA.",
      "clinicalRecommendationStatement": "Clinical trial results suggest that antithrombotic therapy should be prescribed at discharge following acute ischemic stroke to reduce stroke mortality and morbidity as long as no contraindications exist",
      "improvementNotation": {
        "coding": [ {
          "system": "http://terminology.hl7.org/CodeSystem/measure-improvement-notation",
          "code": "increase"
        } ]
      },
      "guidance": "The \"Non-elective Inpatient Encounter\" value set intends to capture all non-scheduled hospitalizations. This value set is a subset of the \"Inpatient encounter\" value set, excluding concepts that specifically refer to elective hospital admissions. Non-elective admissions include emergency, urgent and unplanned admissions.\n\nThe \"Medication, Discharge\" datatype refers to the discharge medication list and is intended to express medications ordered for post-discharge use.\n\nThis eCQM is an episode-based measure. An episode is defined as each inpatient hospitalization or encounter that ends during the measurement period.\n\nThis FHIR-based measure has been derived from the QDM-based measure: CMS104v10",
      "group": [ {
        "population": [ {
          "id": "3461E500-1396-4E0C-B6C7-5B5C7B024765",
          "code": {
            "coding": [ {
              "system": "http://terminology.hl7.org/CodeSystem/measure-population",
              "code": "initial-population",
              "display": "Initial Population"
            } ]
          },
          "criteria": {
            "language": "text/cql.identifier",
            "expression": "Initial Population"
          }
        }, {
          "id": "D8C1DE16-6CC9-4B90-B1A9-E635665B36CA",
          "code": {
            "coding": [ {
              "system": "http://terminology.hl7.org/CodeSystem/measure-population",
              "code": "denominator",
              "display": "Denominator"
            } ]
          },
          "criteria": {
            "language": "text/cql.identifier",
            "expression": "Denominator"
          }
        }, {
          "id": "874052F5-D503-4C5C-A436-05900B0967E3",
          "code": {
            "coding": [ {
              "system": "http://terminology.hl7.org/CodeSystem/measure-population",
              "code": "denominator-exclusion",
              "display": "Denominator Exclusion"
            } ]
          },
          "criteria": {
            "language": "text/cql.identifier",
            "expression": "Denominator Exclusions"
          }
        }, {
          "id": "0BFADF64-121B-47BA-A02F-EE5F433B8C7D",
          "code": {
            "coding": [ {
              "system": "http://terminology.hl7.org/CodeSystem/measure-population",
              "code": "denominator-exception",
              "display": "Denominator Exception"
            } ]
          },
          "criteria": {
            "language": "text/cql.identifier",
            "expression": "Denominator Exceptions"
          }
        }, {
          "id": "1AA9F20D-3A56-400C-A53E-0D8CE2BC6C83",
          "code": {
            "coding": [ {
              "system": "http://terminology.hl7.org/CodeSystem/measure-population",
              "code": "numerator",
              "display": "Numerator"
            } ]
          },
          "criteria": {
            "language": "text/cql.identifier",
            "expression": "Numerator"
          }
        } ]
      } ]
    },
    "request": {
      "method": "PUT",
      "url": "Measure/DischargedonAntithromboticTherapyFHIR/_history/24"
    }
  }, {
    "resource": {
      "resourceType": "ValueSet",
      "id": "2.16.840.1.113883.3.666.5.307",
      "url": "http://cts.nlm.nih.gov/fhir/ValueSet/2.16.840.1.113883.3.666.5.307",
      "identifier": [ {
        "system": "urn:ietf:rfc:3986",
        "value": "2.16.840.1.113883.3.666.5.307"
      } ],
      "version": "20200307",
      "name": "EncounterInpatient",
      "title": "Encounter Inpatient",
      "status": "active",
      "experimental": false,
      "publisher": "NLM",
      "expansion": {
        "identifier": "20210506",
        "timestamp": "2021-07-19T17:22:05-06:00",
        "contains": [ {
          "system": "http://snomed.info/sct",
          "version": "2020-09",
          "code": "183452005",
          "display": "Emergency hospital admission (procedure)"
        }, {
          "system": "http://snomed.info/sct",
          "version": "2020-09",
          "code": "32485007",
          "display": "Hospital admission (procedure)"
        }, {
          "system": "http://snomed.info/sct",
          "version": "2020-09",
          "code": "8715000",
          "display": "Hospital admission, elective (procedure)"
        } ]
      }
    },
    "request": {
      "method": "PUT",
      "url": "ValueSet/2.16.840.1.113883.3.666.5.307"
    }
  }, {
    "resource": {
      "resourceType": "MedicationRequest",
      "id": "MedicationRequest-numer-EXM104",
      "status": "completed",
      "intent": "order",
      "category": [ {
        "coding": [ {
          "system": "http://terminology.hl7.org/CodeSystem/medicationrequest-category",
          "code": "discharge",
          "display": "Discharge"
        } ]
      } ],
      "medicationCodeableConcept": {
        "coding": [ {
          "system": "http://www.nlm.nih.gov/research/umls/rxnorm",
          "code": "1037045",
          "display": "dabigatran etexilate 150 MG Oral Capsule"
        } ]
      },
      "subject": {
        "reference": "Patient/Patient-numer-EXM104"
      },
      "authoredOn": "2019-12-17T08:00:00"
    },
    "request": {
      "method": "PUT",
      "url": "MedicationRequest/MedicationRequest-numer-EXM104"
    }
  }, {
    "resource": {
      "resourceType": "ValueSet",
      "id": "1.3.6.1.4.1.33895.1.3.0.45",
      "url": "http://cts.nlm.nih.gov/fhir/ValueSet/1.3.6.1.4.1.33895.1.3.0.45",
      "identifier": [ {
        "system": "urn:ietf:rfc:3986",
        "value": "1.3.6.1.4.1.33895.1.3.0.45"
      } ],
      "version": "20210220",
      "name": "ComfortMeasures",
      "title": "Comfort Measures",
      "status": "active",
      "experimental": false,
      "publisher": "NLM",
      "expansion": {
        "identifier": "20210506",
        "timestamp": "2021-07-19T17:22:05-06:00",
        "contains": [ {
          "system": "http://snomed.info/sct",
          "version": "2020-09",
          "code": "133918004",
          "display": "Comfort measures (regime/therapy)"
        }, {
          "system": "http://snomed.info/sct",
          "version": "2020-09",
          "code": "182964004",
          "display": "Terminal care (regime/therapy)"
        }, {
          "system": "http://snomed.info/sct",
          "version": "2020-09",
          "code": "385736008",
          "display": "Dying care (regime/therapy)"
        }, {
          "system": "http://snomed.info/sct",
          "version": "2020-09",
          "code": "385763009",
          "display": "Hospice care (regime/therapy)"
        } ]
      }
    },
    "request": {
      "method": "PUT",
      "url": "ValueSet/1.3.6.1.4.1.33895.1.3.0.45"
    }
  }, {
    "resource": {
      "resourceType": "Patient",
      "id": "denom-EXM104",
      "meta": {
        "profile": [ "http://hl7.org/fhir/us/core/StructureDefinition/us-core-patient" ]
      },
      "extension": [ {
        "url": "http://hl7.org/fhir/us/core/StructureDefinition/us-core-race",
        "extension": [ {
          "url": "ombCategory",
          "valueCoding": {
            "system": "urn:oid:2.16.840.1.113883.6.238",
            "code": "2054-5",
            "display": "Black or African American"
          }
        } ]
      }, {
        "url": "http://hl7.org/fhir/us/core/StructureDefinition/us-core-ethnicity",
        "extension": [ {
          "url": "ombCategory",
          "valueCoding": {
            "system": "urn:oid:2.16.840.1.113883.6.238",
            "code": "2135-2",
            "display": "Hispanic or Latino"
          }
        } ]
      } ],
      "identifier": [ {
        "use": "usual",
        "type": {
          "coding": [ {
            "system": "http://terminology.hl7.org/CodeSystem/v2-0203",
            "code": "MR",
            "display": "Medical Record Number"
          } ]
        },
        "system": "http://hospital.smarthealthit.org",
        "value": "9999999910"
      } ],
      "name": [ {
        "family": "Jones",
        "given": [ "Rick" ]
      } ],
      "gender": "male",
      "birthDate": "1955-11-05"
    },
    "request": {
      "method": "PUT",
      "url": "Patient/denom-EXM104"
    }
  }, {
    "resource": {
      "resourceType": "ValueSet",
      "id": "2.16.840.1.113762.1.4.1110.52",
      "url": "http://cts.nlm.nih.gov/fhir/ValueSet/2.16.840.1.113762.1.4.1110.52",
      "identifier": [ {
        "system": "urn:ietf:rfc:3986",
        "value": "2.16.840.1.113762.1.4.1110.52"
      } ],
      "version": "20210220",
      "name": "PharmacologicalContraindicationsForAntithromboticTherapy",
      "title": "Pharmacological Contraindications For Antithrombotic Therapy",
      "status": "active",
      "experimental": false,
      "publisher": "NLM",
      "expansion": {
        "identifier": "20210506",
        "timestamp": "2021-07-19T17:22:06-06:00",
        "contains": [ {
          "system": "http://www.nlm.nih.gov/research/umls/rxnorm",
          "version": "2021-01",
          "code": "1116635",
          "display": "ticagrelor 90 MG Oral Tablet"
        }, {
          "system": "http://www.nlm.nih.gov/research/umls/rxnorm",
          "version": "2021-01",
          "code": "1666332",
          "display": "ticagrelor 60 MG Oral Tablet"
        }, {
          "system": "http://www.nlm.nih.gov/research/umls/rxnorm",
          "version": "2021-01",
          "code": "855812",
          "display": "prasugrel 10 MG Oral Tablet"
        }, {
          "system": "http://www.nlm.nih.gov/research/umls/rxnorm",
          "version": "2021-01",
          "code": "855818",
          "display": "prasugrel 5 MG Oral Tablet"
        } ]
      }
    },
    "request": {
      "method": "PUT",
      "url": "ValueSet/2.16.840.1.113762.1.4.1110.52"
    }
  }, {
    "resource": {
      "resourceType": "Encounter",
      "id": "Encounter-denomexcl-EXM104",
      "meta": {
        "profile": [ "http://hl7.org/fhir/us/core/StructureDefinition/us-core-encounter" ]
      },
      "status": "finished",
      "class": {
        "system": "http://terminology.hl7.org/CodeSystem/v3-ActCode",
        "code": "IMP",
        "display": "inpatient encounter"
      },
      "type": [ {
        "coding": [ {
          "system": "http://snomed.info/sct",
          "code": "32485007",
          "display": "Hospital admission (procedure)"
        } ]
      } ],
      "subject": {
        "reference": "Patient/Patient-denomexcl-EXM104"
      },
      "period": {
        "start": "2019-08-21T00:00:00-06:00",
        "end": "2019-12-19T08:15:00-07:00"
      },
      "diagnosis": [ {
        "condition": {
          "reference": "Condition/Condition-denomexcl-EXM104"
        },
        "use": {
          "coding": [ {
            "system": "http://hl7.org/fhir/diagnosis-role",
            "code": "billing",
            "display": "Billing"
          } ]
        },
        "rank": 1
      } ]
    },
    "request": {
      "method": "PUT",
      "url": "Encounter/Encounter-denomexcl-EXM104"
    }
  }, {
    "resource": {
      "resourceType": "Encounter",
      "id": "Encounter-numer-EXM104",
      "meta": {
        "profile": [ "http://hl7.org/fhir/us/core/StructureDefinition/us-core-encounter" ]
      },
      "status": "finished",
      "class": {
        "system": "http://terminology.hl7.org/CodeSystem/v3-ActCode",
        "code": "IMP",
        "display": "inpatient encounter"
      },
      "type": [ {
        "coding": [ {
          "system": "http://snomed.info/sct",
          "code": "32485007",
          "display": "Hospital admission (procedure)"
        } ]
      } ],
      "subject": {
        "reference": "Patient/Patient-numer-EXM104"
      },
      "period": {
        "start": "2019-08-21T00:00:00-06:00",
        "end": "2019-12-19T08:15:00-07:00"
      },
      "diagnosis": [ {
        "condition": {
          "reference": "Condition/Condition-numer-EXM104"
        },
        "use": {
          "coding": [ {
            "system": "http://hl7.org/fhir/diagnosis-role",
            "code": "billing",
            "display": "Billing"
          } ]
        },
        "rank": 1
      } ]
    },
    "request": {
      "method": "PUT",
      "url": "Encounter/Encounter-numer-EXM104"
    }
  }, {
    "resource": {
      "resourceType": "ValueSet",
      "id": "2.16.840.1.113883.3.117.1.7.1.212",
      "url": "http://cts.nlm.nih.gov/fhir/ValueSet/2.16.840.1.113883.3.117.1.7.1.212",
      "identifier": [ {
        "system": "urn:ietf:rfc:3986",
        "value": "2.16.840.1.113883.3.117.1.7.1.212"
      } ],
      "version": "20210220",
      "name": "HemorrhagicStroke",
      "title": "Hemorrhagic Stroke",
      "status": "active",
      "experimental": false,
      "publisher": "NLM",
      "expansion": {
        "identifier": "20210506",
        "timestamp": "2021-07-19T17:22:06-06:00",
        "contains": [ {
          "system": "http://hl7.org/fhir/sid/icd-10-cm",
          "version": "2021",
          "code": "I60.00",
          "display": "Nontraumatic subarachnoid hemorrhage from unspecified carotid siphon and bifurcation"
        }, {
          "system": "http://hl7.org/fhir/sid/icd-10-cm",
          "version": "2021",
          "code": "I60.01",
          "display": "Nontraumatic subarachnoid hemorrhage from right carotid siphon and bifurcation"
        }, {
          "system": "http://hl7.org/fhir/sid/icd-10-cm",
          "version": "2021",
          "code": "I60.02",
          "display": "Nontraumatic subarachnoid hemorrhage from left carotid siphon and bifurcation"
        }, {
          "system": "http://hl7.org/fhir/sid/icd-10-cm",
          "version": "2021",
          "code": "I60.10",
          "display": "Nontraumatic subarachnoid hemorrhage from unspecified middle cerebral artery"
        }, {
          "system": "http://hl7.org/fhir/sid/icd-10-cm",
          "version": "2021",
          "code": "I60.11",
          "display": "Nontraumatic subarachnoid hemorrhage from right middle cerebral artery"
        }, {
          "system": "http://hl7.org/fhir/sid/icd-10-cm",
          "version": "2021",
          "code": "I60.12",
          "display": "Nontraumatic subarachnoid hemorrhage from left middle cerebral artery"
        }, {
          "system": "http://hl7.org/fhir/sid/icd-10-cm",
          "version": "2021",
          "code": "I60.2",
          "display": "Nontraumatic subarachnoid hemorrhage from anterior communicating artery"
        }, {
          "system": "http://hl7.org/fhir/sid/icd-10-cm",
          "version": "2021",
          "code": "I60.30",
          "display": "Nontraumatic subarachnoid hemorrhage from unspecified posterior communicating artery"
        }, {
          "system": "http://hl7.org/fhir/sid/icd-10-cm",
          "version": "2021",
          "code": "I60.31",
          "display": "Nontraumatic subarachnoid hemorrhage from right posterior communicating artery"
        }, {
          "system": "http://hl7.org/fhir/sid/icd-10-cm",
          "version": "2021",
          "code": "I60.32",
          "display": "Nontraumatic subarachnoid hemorrhage from left posterior communicating artery"
        }, {
          "system": "http://hl7.org/fhir/sid/icd-10-cm",
          "version": "2021",
          "code": "I60.4",
          "display": "Nontraumatic subarachnoid hemorrhage from basilar artery"
        }, {
          "system": "http://hl7.org/fhir/sid/icd-10-cm",
          "version": "2021",
          "code": "I60.50",
          "display": "Nontraumatic subarachnoid hemorrhage from unspecified vertebral artery"
        }, {
          "system": "http://hl7.org/fhir/sid/icd-10-cm",
          "version": "2021",
          "code": "I60.51",
          "display": "Nontraumatic subarachnoid hemorrhage from right vertebral artery"
        }, {
          "system": "http://hl7.org/fhir/sid/icd-10-cm",
          "version": "2021",
          "code": "I60.52",
          "display": "Nontraumatic subarachnoid hemorrhage from left vertebral artery"
        }, {
          "system": "http://hl7.org/fhir/sid/icd-10-cm",
          "version": "2021",
          "code": "I60.6",
          "display": "Nontraumatic subarachnoid hemorrhage from other intracranial arteries"
        }, {
          "system": "http://hl7.org/fhir/sid/icd-10-cm",
          "version": "2021",
          "code": "I60.7",
          "display": "Nontraumatic subarachnoid hemorrhage from unspecified intracranial artery"
        }, {
          "system": "http://hl7.org/fhir/sid/icd-10-cm",
          "version": "2021",
          "code": "I60.8",
          "display": "Other nontraumatic subarachnoid hemorrhage"
        }, {
          "system": "http://hl7.org/fhir/sid/icd-10-cm",
          "version": "2021",
          "code": "I60.9",
          "display": "Nontraumatic subarachnoid hemorrhage, unspecified"
        }, {
          "system": "http://hl7.org/fhir/sid/icd-10-cm",
          "version": "2021",
          "code": "I61.0",
          "display": "Nontraumatic intracerebral hemorrhage in hemisphere, subcortical"
        }, {
          "system": "http://hl7.org/fhir/sid/icd-10-cm",
          "version": "2021",
          "code": "I61.1",
          "display": "Nontraumatic intracerebral hemorrhage in hemisphere, cortical"
        }, {
          "system": "http://hl7.org/fhir/sid/icd-10-cm",
          "version": "2021",
          "code": "I61.2",
          "display": "Nontraumatic intracerebral hemorrhage in hemisphere, unspecified"
        }, {
          "system": "http://hl7.org/fhir/sid/icd-10-cm",
          "version": "2021",
          "code": "I61.3",
          "display": "Nontraumatic intracerebral hemorrhage in brain stem"
        }, {
          "system": "http://hl7.org/fhir/sid/icd-10-cm",
          "version": "2021",
          "code": "I61.4",
          "display": "Nontraumatic intracerebral hemorrhage in cerebellum"
        }, {
          "system": "http://hl7.org/fhir/sid/icd-10-cm",
          "version": "2021",
          "code": "I61.5",
          "display": "Nontraumatic intracerebral hemorrhage, intraventricular"
        }, {
          "system": "http://hl7.org/fhir/sid/icd-10-cm",
          "version": "2021",
          "code": "I61.6",
          "display": "Nontraumatic intracerebral hemorrhage, multiple localized"
        }, {
          "system": "http://hl7.org/fhir/sid/icd-10-cm",
          "version": "2021",
          "code": "I61.8",
          "display": "Other nontraumatic intracerebral hemorrhage"
        }, {
          "system": "http://hl7.org/fhir/sid/icd-10-cm",
          "version": "2021",
          "code": "I61.9",
          "display": "Nontraumatic intracerebral hemorrhage, unspecified"
        }, {
          "system": "http://snomed.info/sct",
          "version": "2020-09",
          "code": "195155004",
          "display": "Subarachnoid hemorrhage from carotid siphon and bifurcation (disorder)"
        }, {
          "system": "http://snomed.info/sct",
          "version": "2020-09",
          "code": "195160000",
          "display": "Intracranial subarachnoid hemorrhage from vertebral artery (disorder)"
        }, {
          "system": "http://snomed.info/sct",
          "version": "2020-09",
          "code": "195165005",
          "display": "Basal ganglia hemorrhage (disorder)"
        }, {
          "system": "http://snomed.info/sct",
          "version": "2020-09",
          "code": "195167002",
          "display": "External capsule hemorrhage (disorder)"
        }, {
          "system": "http://snomed.info/sct",
          "version": "2020-09",
          "code": "195168007",
          "display": "Intracerebral hemorrhage with intraventricular hemorrhage (disorder)"
        }, {
          "system": "http://snomed.info/sct",
          "version": "2020-09",
          "code": "195169004",
          "display": "Intracerebral hemorrhage, multiple localized (disorder)"
        }, {
          "system": "http://snomed.info/sct",
          "version": "2020-09",
          "code": "20908003",
          "display": "Subcortical cerebral hemorrhage (disorder)"
        }, {
          "system": "http://snomed.info/sct",
          "version": "2020-09",
          "code": "230706003",
          "display": "Hemorrhagic cerebral infarction (disorder)"
        }, {
          "system": "http://snomed.info/sct",
          "version": "2020-09",
          "code": "230707007",
          "display": "Anterior cerebral circulation hemorrhagic infarction (disorder)"
        }, {
          "system": "http://snomed.info/sct",
          "version": "2020-09",
          "code": "230708002",
          "display": "Posterior cerebral circulation hemorrhagic infarction (disorder)"
        }, {
          "system": "http://snomed.info/sct",
          "version": "2020-09",
          "code": "230709005",
          "display": "Massive supratentorial cerebral hemorrhage (disorder)"
        }, {
          "system": "http://snomed.info/sct",
          "version": "2020-09",
          "code": "230710000",
          "display": "Lobar cerebral hemorrhage (disorder)"
        }, {
          "system": "http://snomed.info/sct",
          "version": "2020-09",
          "code": "230711001",
          "display": "Thalamic hemorrhage (disorder)"
        }, {
          "system": "http://snomed.info/sct",
          "version": "2020-09",
          "code": "230712008",
          "display": "Lacunar hemorrhage (disorder)"
        }, {
          "system": "http://snomed.info/sct",
          "version": "2020-09",
          "code": "23276006",
          "display": "Ventricular hemorrhage (disorder)"
        }, {
          "system": "http://snomed.info/sct",
          "version": "2020-09",
          "code": "270907008",
          "display": "Spontaneous intracranial subarachnoid hemorrhage (disorder)"
        }, {
          "system": "http://snomed.info/sct",
          "version": "2020-09",
          "code": "274100004",
          "display": "Cerebral hemorrhage (disorder)"
        }, {
          "system": "http://snomed.info/sct",
          "version": "2020-09",
          "code": "276277008",
          "display": "Subarachnoid hemorrhage from multiple aneurysms (disorder)"
        }, {
          "system": "http://snomed.info/sct",
          "version": "2020-09",
          "code": "276278003",
          "display": "Subarachnoid hemorrhage from anterior cerebral artery aneurysm (disorder)"
        }, {
          "system": "http://snomed.info/sct",
          "version": "2020-09",
          "code": "276280009",
          "display": "Subarachnoid hemorrhage from middle cerebral artery aneurysm (disorder)"
        }, {
          "system": "http://snomed.info/sct",
          "version": "2020-09",
          "code": "276281008",
          "display": "Subarachnoid hemorrhage from posterior cerebral artery aneurysm (disorder)"
        }, {
          "system": "http://snomed.info/sct",
          "version": "2020-09",
          "code": "276282001",
          "display": "Subarachnoid hemorrhage from anterior communicating artery aneurysm (disorder)"
        }, {
          "system": "http://snomed.info/sct",
          "version": "2020-09",
          "code": "276283006",
          "display": "Subarachnoid hemorrhage from posterior communicating artery aneurysm (disorder)"
        }, {
          "system": "http://snomed.info/sct",
          "version": "2020-09",
          "code": "276284000",
          "display": "Subarachnoid hemorrhage from basilar artery aneurysm (disorder)"
        }, {
          "system": "http://snomed.info/sct",
          "version": "2020-09",
          "code": "276285004",
          "display": "Subarachnoid hemorrhage from posterior inferior cerebellar artery aneurysm (disorder)"
        }, {
          "system": "http://snomed.info/sct",
          "version": "2020-09",
          "code": "276286003",
          "display": "Subarachnoid hemorrhage from carotid artery aneurysm (disorder)"
        }, {
          "system": "http://snomed.info/sct",
          "version": "2020-09",
          "code": "276722003",
          "display": "Intracerebellar and posterior fossa hemorrhage (disorder)"
        }, {
          "system": "http://snomed.info/sct",
          "version": "2020-09",
          "code": "28318001",
          "display": "Basilar hemorrhage (disorder)"
        }, {
          "system": "http://snomed.info/sct",
          "version": "2020-09",
          "code": "42429001",
          "display": "Cerebromeningeal hemorrhage (disorder)"
        }, {
          "system": "http://snomed.info/sct",
          "version": "2020-09",
          "code": "425957003",
          "display": "Non-traumatic intracerebral ventricular hemorrhage (disorder)"
        }, {
          "system": "http://snomed.info/sct",
          "version": "2020-09",
          "code": "449020009",
          "display": "Intraparenchymal hemorrhage of brain (disorder)"
        }, {
          "system": "http://snomed.info/sct",
          "version": "2020-09",
          "code": "49422009",
          "display": "Cortical hemorrhage (disorder)"
        }, {
          "system": "http://snomed.info/sct",
          "version": "2020-09",
          "code": "52201006",
          "display": "Internal capsule hemorrhage (disorder)"
        }, {
          "system": "http://snomed.info/sct",
          "version": "2020-09",
          "code": "73020009",
          "display": "Cerebral hemisphere hemorrhage (disorder)"
        }, {
          "system": "http://snomed.info/sct",
          "version": "2020-09",
          "code": "75038005",
          "display": "Cerebellar hemorrhage (disorder)"
        }, {
          "system": "http://snomed.info/sct",
          "version": "2020-09",
          "code": "7713009",
          "display": "Intrapontine hemorrhage (disorder)"
        }, {
          "system": "http://snomed.info/sct",
          "version": "2020-09",
          "code": "95454007",
          "display": "Brain stem hemorrhage (disorder)"
        } ]
      }
    },
    "request": {
      "method": "PUT",
      "url": "ValueSet/2.16.840.1.113883.3.117.1.7.1.212"
    }
  } ]
}