{
  "resourceType": "Bundle",
  "id": "tests-denomexcl-CMS122-Patient-bundle",
  "type": "transaction",
  "entry": [ {
    "resource": {
      "resourceType": "Encounter",
      "id": "denomexcl-CMS122-Encounter",
      "text": {
        "status": "generated"
      },
      "status": "finished",
      "class": {
        "system": "http://terminology.hl7.org/CodeSystem/v3-ActCode",
        "code": "IMP",
        "display": "inpatient encounter"
      },
      "type": [ {
        "coding": [ {
          "system": "http://snomed.info/sct",
          "code": "32485007",
          "display": "Encounter Inpatient"
        } ],
        "text": "Inpatient Admission"
      } ],
      "subject": {
        "reference": "Patient/denomexcl-CMS122-Patient"
      },
      "period": {
        "start": "2019-01-16T08:30:00",
        "end": "2019-01-20T08:30:00"
      },
      "diagnosis": [ {
        "condition": {
          "display": "Cardiac arrest as a complication of care (disorder)"
        },
        "use": {
          "coding": [ {
            "system": "2.16.840.1.113883.6.96",
            "code": "213213007",
            "display": "Cardiopulmonary arrest"
          } ]
        }
      } ],
      "hospitalization": {
        "dischargeDisposition": {
          "coding": [ {
            "system": "http://snomed.info/sct",
            "code": "428361000124107",
            "display": "Discharge to home for hospice care (procedure)"
          } ]
        }
      }
    },
    "request": {
      "method": "PUT",
      "url": "Encounter/denomexcl-CMS122-Encounter"
    }
  }, {
    "resource": {
      "resourceType": "Encounter",
      "id": "denomexcl-CMS122-Encounter-office-visit",
      "meta": {
        "profile": [ "http://hl7.org/fhir/us/core/StructureDefinition/us-core-encounter" ]
      },
      "status": "finished",
      "class": {
        "system": "http://terminology.hl7.org/CodeSystem/v3-ActCode",
        "code": "AMB",
        "display": "ambulatory"
      },
      "type": [ {
        "coding": [ {
          "system": "http://www.ama-assn.org/go/cpt",
          "code": "99201",
          "display": "Office or other outpatient visit for the evaluation and management of a new patient, which requires these 3 key components: A problem focused history; A problem focused examination; Straightforward medical decision making. Counseling and/or coordination of care with other physicians, other qualified health care professionals, or agencies are provided consistent with the nature of the problem(s) and the patient's and/or family's needs. Usually, the presenting problem(s) are self limited or minor. Typically, 10 minutes are spent face-to-face with the patient and/or family."
        } ]
      } ],
      "subject": {
        "reference": "Patient/denomexcl-CMS122-Patient"
      },
      "period": {
        "start": "2019-05-30T00:00:00-00:00",
        "end": "2019-05-31T00:00:00-00:00"
      }
    },
    "request": {
      "method": "PUT",
      "url": "Encounter/denomexcl-CMS122-Encounter-office-visit"
    }
  }, {
    "resource": {
      "resourceType": "Procedure",
      "id": "denomexcl-CMS122-Procedure",
      "status": "completed",
      "code": {
        "coding": [ {
          "system": "http://snomed.info/sct",
          "code": "112943005",
          "display": "Epidural injection of anesthetic substance, diagnostic, caudal, continuous (procedure)"
        } ],
        "text": "General or Neuraxial Anesthesia"
      },
      "subject": {
        "reference": "Patient/denomexcl-CMS122-Patient"
      },
      "encounter": {
        "reference": "Encounter/denomexcl-CMS122-Encounter"
      },
      "performedPeriod": {
        "start": "2019-01-17T08:30:00",
        "end": "2019-01-17T10:30:00"
      }
    },
    "request": {
      "method": "PUT",
      "url": "Procedure/denomexcl-CMS122-Procedure"
    }
  }, {
    "resource": {
      "resourceType": "Condition",
      "id": "denomexcl-CMS122-Condition",
      "clinicalStatus": {
        "coding": [ {
          "system": "http://terminology.hl7.org/CodeSystem/condition-clinical",
          "code": "active",
          "display": "Active"
        } ],
        "text": "Active"
      },
      "verificationStatus": {
        "coding": [ {
          "system": "http://terminology.hl7.org/CodeSystem/condition-ver-status",
          "code": "confirmed",
          "display": "confirmed"
        } ],
        "text": "confirmed"
      },
      "severity": {
        "coding": [ {
          "system": "http://snomed.info/sct",
          "code": "6736007",
          "display": "Moderate"
        } ],
        "text": "Moderate"
      },
      "code": {
        "coding": [ {
          "system": "http://hl7.org/fhir/sid/icd-10-cm",
          "code": "E10.10",
          "display": "Type 1 diabetes mellitus with ketoacidosis without coma"
        } ],
        "text": "Type 1 diabetes"
      },
      "subject": {
        "reference": "Patient/denomexcl-CMS122-Patient"
      },
      "encounter": {
        "reference": "Encounter/denomexcl-CMS122-Encounter-office-visit"
      },
      "onsetPeriod": {
        "start": "2009-01-16T08:30:00"
      }
    },
    "request": {
      "method": "PUT",
      "url": "Condition/denomexcl-CMS122-Condition"
    }
  }, {
    "resource": {
      "resourceType": "Patient",
      "id": "denomexcl-CMS122-Patient",
      "text": {
        "status": "extensions"
      },
      "extension": [ {
        "url": "http://hl7.org/fhir/us/core/StructureDefinition/us-core-race",
        "extension": [ {
          "url": "ombCategory",
          "valueCoding": {
            "system": "urn:oid:2.16.840.1.113883.6.238",
            "code": "2106-3",
            "display": "White"
          }
        } ]
      }, {
        "url": "http://hl7.org/fhir/us/core/StructureDefinition/us-core-ethnicity",
        "extension": [ {
          "url": "ombCategory",
          "valueCoding": {
            "system": "urn:oid:2.16.840.1.113883.6.238",
            "code": "2186-5",
            "display": "Not Hispanic or Latino"
          }
        } ]
      } ],
      "active": true,
      "name": [ {
        "use": "official",
        "text": "BECK,TOM",
        "family": "BECK",
        "given": [ "TOM" ]
      } ],
      "gender": "male",
      "birthDate": "1965-06-30"
    },
    "request": {
      "method": "PUT",
      "url": "Patient/denomexcl-CMS122-Patient"
    }
  }, {
    "resource": {
      "resourceType": "MeasureReport",
      "id": "measurereport-denomexcl-CMS122-Patient",
      "contained": [ {
        "resourceType": "Observation",
        "id": "d24d7802-a0bd-4894-974f-2c6396fddac0",
        "extension": [ {
          "url": "http://hl7.org/fhir/StructureDefinition/cqf-measureInfo",
          "extension": [ {
            "url": "measure",
            "valueCanonical": "http://hl7.org/fhir/us/cqfmeasures/http://ecqi.healthit.gov/ecqms/Measure/DiabetesHemoglobinA1cHbA1cPoorControl9FHIR"
          }, {
            "url": "populationId",
            "valueString": "sde-race"
          } ]
        } ],
        "status": "final",
        "code": {
          "text": "sde-race"
        },
        "valueCodeableConcept": {
          "coding": [ {
            "system": "urn:oid:2.16.840.1.113883.6.238",
            "code": "2106-3",
            "display": "White"
          } ]
        }
      }, {
        "resourceType": "Observation",
        "id": "2bf603b9-ce11-47ec-8b30-a74e4162b619",
        "extension": [ {
          "url": "http://hl7.org/fhir/StructureDefinition/cqf-measureInfo",
          "extension": [ {
            "url": "measure",
            "valueCanonical": "http://hl7.org/fhir/us/cqfmeasures/http://ecqi.healthit.gov/ecqms/Measure/DiabetesHemoglobinA1cHbA1cPoorControl9FHIR"
          }, {
            "url": "populationId",
            "valueString": "sde-ethnicity"
          } ]
        } ],
        "status": "final",
        "code": {
          "text": "sde-ethnicity"
        },
        "valueCodeableConcept": {
          "coding": [ {
            "system": "urn:oid:2.16.840.1.113883.6.238",
            "code": "2186-5",
            "display": "Not Hispanic or Latino"
          } ]
        }
      }, {
        "resourceType": "Observation",
        "id": "1b1b90e3-875b-49c3-b907-bce6e425a2bc",
        "extension": [ {
          "url": "http://hl7.org/fhir/StructureDefinition/cqf-measureInfo",
          "extension": [ {
            "url": "measure",
            "valueCanonical": "http://hl7.org/fhir/us/cqfmeasures/http://ecqi.healthit.gov/ecqms/Measure/DiabetesHemoglobinA1cHbA1cPoorControl9FHIR"
          }, {
            "url": "populationId",
            "valueString": "sde-sex"
          } ]
        } ],
        "status": "final",
        "code": {
          "text": "sde-sex"
        },
        "valueCodeableConcept": {
          "coding": [ {
            "code": "M"
          } ]
        }
      } ],
      "status": "complete",
      "type": "individual",
      "measure": "http://ecqi.healthit.gov/ecqms/Measure/DiabetesHemoglobinA1cHbA1cPoorControl9FHIR",
      "subject": {
        "reference": "Patient/denomexcl-CMS122-Patient"
      },
      "period": {
        "start": "2019-01-01T00:00:00-07:00",
        "end": "2019-12-31T00:00:00-07:00"
      },
      "group": [ {
        "id": "group-1",
        "population": [ {
          "code": {
            "coding": [ {
              "system": "http://terminology.hl7.org/CodeSystem/measure-population",
              "code": "initial-population",
              "display": "Initial Population"
            } ]
          },
          "count": 1
        }, {
          "code": {
            "coding": [ {
              "system": "http://terminology.hl7.org/CodeSystem/measure-population",
              "code": "numerator",
              "display": "Numerator"
            } ]
          },
          "count": 0
        }, {
          "code": {
            "coding": [ {
              "system": "http://terminology.hl7.org/CodeSystem/measure-population",
              "code": "denominator",
              "display": "Denominator"
            } ]
          },
          "count": 0
        }, {
          "code": {
            "coding": [ {
              "system": "http://terminology.hl7.org/CodeSystem/measure-population",
              "code": "denominator-exclusion",
              "display": "Denominator Exclusion"
            } ]
          },
          "count": 1
        } ]
      } ],
      "evaluatedResource": [ {
        "reference": "#d24d7802-a0bd-4894-974f-2c6396fddac0"
      }, {
        "reference": "#2bf603b9-ce11-47ec-8b30-a74e4162b619"
      }, {
        "reference": "#1b1b90e3-875b-49c3-b907-bce6e425a2bc"
      }, {
        "extension": [ {
          "url": "http://hl7.org/fhir/us/davinci-deqm/StructureDefinition/extension-populationReference",
          "valueString": "initial-population"
        }, {
          "url": "http://hl7.org/fhir/us/davinci-deqm/StructureDefinition/extension-populationReference",
          "valueString": "denominator"
        } ],
        "reference": "Condition/denomexcl-CMS122-Condition"
      }, {
        "extension": [ {
          "url": "http://hl7.org/fhir/us/davinci-deqm/StructureDefinition/extension-populationReference",
          "valueString": "initial-population"
        }, {
          "url": "http://hl7.org/fhir/us/davinci-deqm/StructureDefinition/extension-populationReference",
          "valueString": "denominator"
        } ],
        "reference": "Encounter/denomexcl-CMS122-EncounterOV"
      }, {
        "extension": [ {
          "url": "http://hl7.org/fhir/us/davinci-deqm/StructureDefinition/extension-populationReference",
          "valueString": "initial-population"
        }, {
          "url": "http://hl7.org/fhir/us/davinci-deqm/StructureDefinition/extension-populationReference",
          "valueString": "denominator"
        } ],
        "reference": "Patient/denomexcl-CMS122-Patient"
      }, {
        "extension": [ {
          "url": "http://hl7.org/fhir/us/davinci-deqm/StructureDefinition/extension-populationReference",
          "valueString": "denominator"
        } ],
        "reference": "Encounter/denomexcl-CMS122-Encounter"
      }, {
        "extension": [ {
          "url": "http://hl7.org/fhir/us/davinci-deqm/StructureDefinition/extension-populationReference",
          "valueString": "initial-population"
        }, {
          "url": "http://hl7.org/fhir/us/davinci-deqm/StructureDefinition/extension-populationReference",
          "valueString": "denominator"
        } ],
        "reference": "Condition/denomexcl-CMS122-Condition"
      }, {
        "extension": [ {
          "url": "http://hl7.org/fhir/us/davinci-deqm/StructureDefinition/extension-populationReference",
          "valueString": "initial-population"
        }, {
          "url": "http://hl7.org/fhir/us/davinci-deqm/StructureDefinition/extension-populationReference",
          "valueString": "denominator"
        } ],
        "reference": "Encounter/denomexcl-CMS122-EncounterOV"
      }, {
        "extension": [ {
          "url": "http://hl7.org/fhir/us/davinci-deqm/StructureDefinition/extension-populationReference",
          "valueString": "initial-population"
        }, {
          "url": "http://hl7.org/fhir/us/davinci-deqm/StructureDefinition/extension-populationReference",
          "valueString": "denominator"
        } ],
        "reference": "Patient/denomexcl-CMS122-Patient"
      } ]
    },
    "request": {
      "method": "PUT",
      "url": "MeasureReport/measurereport-denomexcl-CMS122-Patient"
    }
  }, {
    "resource": {
      "resourceType": "Procedure",
      "id": "denomexcl-CMS122-PrincipalProcedure",
      "text": {
        "status": "generated"
      },
      "partOf": [ {
        "reference": "Procedure/denomexcl-CMS122-Procedure",
        "display": "General or Neuraxial Anesthesia"
      } ],
      "status": "completed",
      "code": {
        "coding": [ {
          "system": "http://snomed.info/sct",
          "code": "47458005",
          "display": "Repair of hip joint (procedure)"
        } ],
        "text": "Hip Fracture Surgery"
      },
      "subject": {
        "reference": "Patient/denomexcl-CMS122-Patient"
      },
      "performedPeriod": {
        "start": "2019-01-17T09:00:00",
        "end": "2019-01-17T10:00:00"
      }
    },
    "request": {
      "method": "PUT",
      "url": "Procedure/denomexcl-CMS122-PrincipalProcedure"
    }
  }, {
    "resource": {
      "resourceType": "DiagnosticReport",
      "id": "denomexcl-EXM165-DiagnosticReport",
      "text": {
        "status": "generated"
      },
      "status": "final",
      "category": [ {
        "coding": [ {
          "system": "http://terminology.hl7.org/CodeSystem/v2-0074",
          "code": "LAB"
        } ]
      } ],
      "code": {
        "coding": [ {
          "system": "http://loinc.org",
          "code": "34714-6",
          "display": "INR in Blood by Coagulation assay"
        } ]
      },
      "subject": {
        "reference": "Patient/denomexcl-EXM165-Patient"
      },
      "issued": "2019-01-17T12:30:00Z",
      "result": [ {
        "reference": "Observation/denomexcl-EXM165-Observation"
      } ]
    },
    "request": {
      "method": "PUT",
      "url": "DiagnosticReport/denomexcl-EXM165-DiagnosticReport"
    }
  }, {
    "resource": {
      "resourceType": "Observation",
      "id": "denomexcl-CMS122-Observation",
      "text": {
        "status": "generated"
      },
      "status": "final",
      "code": {
        "coding": [ {
          "system": "http://loinc.org",
          "code": "34714-6",
          "display": "INR in Blood by Coagulation assay"
        } ]
      },
      "subject": {
        "reference": "Patient/denomexcl-CMS122-Patient"
      },
      "issued": "2019-01-17T12:30:00",
      "valueQuantity": {
        "value": 3.5
      }
    },
    "request": {
      "method": "PUT",
      "url": "Observation/denomexcl-CMS122-Observation"
    }
  } ]
}