{
  "resourceType": "Bundle",
  "id": "tests-no-ip-CMS122-Patient-bundle",
  "type": "transaction",
  "entry": [ {
    "resource": {
      "resourceType": "Condition",
      "id": "no-ip-CMS122-Condition",
      "clinicalStatus": {
        "coding": [ {
          "system": "http://terminology.hl7.org/CodeSystem/condition-clinical",
          "code": "active",
          "display": "Active"
        } ],
        "text": "Active"
      },
      "verificationStatus": {
        "coding": [ {
          "system": "http://terminology.hl7.org/CodeSystem/condition-ver-status",
          "code": "confirmed",
          "display": "confirmed"
        } ],
        "text": "confirmed"
      },
      "code": {
        "coding": [ {
          "system": "http://hl7.org/fhir/sid/icd-10-cm",
          "code": "E10.10",
          "display": "Type 1 diabetes mellitus with ketoacidosis without coma"
        } ],
        "text": "Type 1 diabetes"
      },
      "subject": {
        "reference": "Patient/no-ip-CMS122-Patient"
      },
      "encounter": {
        "reference": "Encounter/no-ip-CMS122-Encounter"
      },
      "onsetPeriod": {
        "start": "2009-01-16T08:30:00"
      }
    },
    "request": {
      "method": "PUT",
      "url": "Condition/no-ip-CMS122-Condition"
    }
  }, {
    "resource": {
      "resourceType": "Encounter",
      "id": "no-ip-CMS122-Encounter",
      "text": {
        "status": "generated"
      },
      "status": "finished",
      "type": [ {
        "coding": [ {
          "system": "http://www.ama-assn.org/go/cpt",
          "code": "99202",
          "display": "Office or other outpatient visit for the evaluation and management of a new patient, which requires a medically appropriate history and/or examination and straightforward medical decision making. When using time for code selection, 15-29 minutes of total time is spent on the date of the encounter."
        } ],
        "text": "Office Visit"
      } ],
      "subject": {
        "reference": "Patient/no-ip-CMS122-Patient"
      },
      "period": {
        "start": "2019-01-16T08:30:00",
        "end": "2019-01-20T08:30:00"
      }
    },
    "request": {
      "method": "PUT",
      "url": "Encounter/no-ip-CMS122-Encounter"
    }
  }, {
    "resource": {
      "resourceType": "MeasureReport",
      "id": "measurereport-no-ip-CMS122-Patient",
      "contained": [ {
        "resourceType": "Observation",
        "id": "79d91b56-7e25-4c7a-a97a-80a2c44c0c55",
        "extension": [ {
          "url": "http://hl7.org/fhir/StructureDefinition/cqf-measureInfo",
          "extension": [ {
            "url": "measure",
            "valueCanonical": "http://ecqi.healthit.gov/ecqms/Measure/DiabetesHemoglobinA1cHbA1cPoorControl9FHIR"
          }, {
            "url": "populationId",
            "valueString": "sde-race"
          } ]
        } ],
        "status": "final",
        "code": {
          "text": "sde-race"
        },
        "valueCodeableConcept": {
          "coding": [ {
            "system": "urn:oid:2.16.840.1.113883.6.238",
            "code": "2106-3",
            "display": "White"
          } ]
        }
      }, {
        "resourceType": "Observation",
        "id": "25038021-4e44-4c31-99a8-dfa517bf344c",
        "extension": [ {
          "url": "http://hl7.org/fhir/StructureDefinition/cqf-measureInfo",
          "extension": [ {
            "url": "measure",
            "valueCanonical": "http://ecqi.healthit.gov/ecqms/Measure/DiabetesHemoglobinA1cHbA1cPoorControl9FHIR"
          }, {
            "url": "populationId",
            "valueString": "sde-ethnicity"
          } ]
        } ],
        "status": "final",
        "code": {
          "text": "sde-ethnicity"
        },
        "valueCodeableConcept": {
          "coding": [ {
            "system": "urn:oid:2.16.840.1.113883.6.238",
            "code": "2186-5",
            "display": "Not Hispanic or Latino"
          } ]
        }
      }, {
        "resourceType": "Observation",
        "id": "e0f57205-e068-40d3-8cee-9855eb804343",
        "extension": [ {
          "url": "http://hl7.org/fhir/StructureDefinition/cqf-measureInfo",
          "extension": [ {
            "url": "measure",
            "valueCanonical": "http://ecqi.healthit.gov/ecqms/Measure/DiabetesHemoglobinA1cHbA1cPoorControl9FHIR"
          }, {
            "url": "populationId",
            "valueString": "sde-sex"
          } ]
        } ],
        "status": "final",
        "code": {
          "text": "sde-sex"
        },
        "valueCodeableConcept": {
          "coding": [ {
            "code": "M"
          } ]
        }
      } ],
      "status": "complete",
      "type": "individual",
      "measure": "http://ecqi.healthit.gov/ecqms/Measure/DiabetesHemoglobinA1cHbA1cPoorControl9FHIR",
      "subject": {
        "reference": "Patient/no-ip-CMS122-Patient"
      },
      "period": {
        "start": "2019-01-01T00:00:00-07:00",
        "end": "2019-12-31T00:00:00-07:00"
      },
      "group": [ {
        "id": "group-1",
        "population": [ {
          "code": {
            "coding": [ {
              "system": "http://terminology.hl7.org/CodeSystem/measure-population",
              "code": "initial-population",
              "display": "Initial Population"
            } ]
          },
          "count": 0
        }, {
          "code": {
            "coding": [ {
              "system": "http://terminology.hl7.org/CodeSystem/measure-population",
              "code": "numerator",
              "display": "Numerator"
            } ]
          },
          "count": 0
        }, {
          "code": {
            "coding": [ {
              "system": "http://terminology.hl7.org/CodeSystem/measure-population",
              "code": "denominator",
              "display": "Denominator"
            } ]
          },
          "count": 0
        }, {
          "code": {
            "coding": [ {
              "system": "http://terminology.hl7.org/CodeSystem/measure-population",
              "code": "denominator-exclusion",
              "display": "Denominator Exclusion"
            } ]
          },
          "count": 0
        } ]
      } ],
      "evaluatedResource": [ {
        "reference": "#79d91b56-7e25-4c7a-a97a-80a2c44c0c55"
      }, {
        "reference": "#25038021-4e44-4c31-99a8-dfa517bf344c"
      }, {
        "reference": "#e0f57205-e068-40d3-8cee-9855eb804343"
      }, {
        "extension": [ {
          "url": "http://hl7.org/fhir/us/davinci-deqm/StructureDefinition/extension-populationReference",
          "valueString": "initial-population"
        } ],
        "reference": "Patient/no-ip-CMS122-Patient"
      }, {
        "extension": [ {
          "url": "http://hl7.org/fhir/us/davinci-deqm/StructureDefinition/extension-populationReference",
          "valueString": "initial-population"
        } ],
        "reference": "Condition/no-ip-CMS122-Condition"
      }, {
        "extension": [ {
          "url": "http://hl7.org/fhir/us/davinci-deqm/StructureDefinition/extension-populationReference",
          "valueString": "initial-population"
        } ],
        "reference": "Encounter/no-ip-CMS122-Encounter"
      } ]
    },
    "request": {
      "method": "PUT",
      "url": "MeasureReport/measurereport-no-ip-CMS122-Patient"
    }
  }, {
    "resource": {
      "resourceType": "Observation",
      "id": "no-ip-CMS122-Observation",
      "status": "final",
      "category": [ {
        "coding": [ {
          "system": "http://terminology.hl7.org/CodeSystem/observation-category",
          "code": "laboratory"
        } ]
      } ],
      "code": {
        "coding": [ {
          "system": "http://loinc.org",
          "code": "17856-6",
          "display": "Hemoglobin A1c/Hemoglobin.total in Blood by HPLC"
        } ]
      },
      "subject": {
        "reference": "Patient/no-ip-CMS122-Patient"
      },
      "effectiveDateTime": "2019-01-17T12:30:00",
      "valueQuantity": {
        "value": 7.1,
        "unit": "%",
        "system": "http://unitsofmeasure.org",
        "code": "%"
      }
    },
    "request": {
      "method": "PUT",
      "url": "Observation/no-ip-CMS122-Observation"
    }
  }, {
    "resource": {
      "resourceType": "Observation",
      "id": "no-ip-CMS122-Observation2",
      "status": "final",
      "category": [ {
        "coding": [ {
          "system": "http://terminology.hl7.org/CodeSystem/observation-category",
          "code": "laboratory"
        } ]
      } ],
      "code": {
        "coding": [ {
          "system": "http://loinc.org",
          "code": "17856-6",
          "display": "Hemoglobin A1c/Hemoglobin.total in Blood by HPLC"
        } ]
      },
      "subject": {
        "reference": "Patient/no-ip-CMS122-Patient"
      },
      "effectiveDateTime": "2019-10-17T12:30:00",
      "valueQuantity": {
        "value": 9.1,
        "unit": "%",
        "system": "http://unitsofmeasure.org",
        "code": "%"
      }
    },
    "request": {
      "method": "PUT",
      "url": "Observation/no-ip-CMS122-Observation2"
    }
  }, {
    "resource": {
      "resourceType": "Patient",
      "id": "no-ip-CMS122-Patient",
      "meta": {
        "profile": [ "http://hl7.org/fhir/us/core/StructureDefinition/us-core-patient" ]
      },
      "text": {
        "status": "extensions"
      },
      "extension": [ {
        "url": "http://hl7.org/fhir/us/core/StructureDefinition/us-core-race",
        "extension": [ {
          "url": "ombCategory",
          "valueCoding": {
            "system": "urn:oid:2.16.840.1.113883.6.238",
            "code": "2106-3",
            "display": "White"
          }
        } ]
      }, {
        "url": "http://hl7.org/fhir/us/core/StructureDefinition/us-core-ethnicity",
        "extension": [ {
          "url": "ombCategory",
          "valueCoding": {
            "system": "urn:oid:2.16.840.1.113883.6.238",
            "code": "2186-5",
            "display": "Not Hispanic or Latino"
          }
        } ]
      } ],
      "active": true,
      "name": [ {
        "use": "official",
        "text": "BECK,TOM",
        "family": "BECK",
        "given": [ "TOM" ]
      } ],
      "gender": "male",
      "birthDate": "1965-06-30"
    },
    "request": {
      "method": "PUT",
      "url": "Patient/no-ip-CMS122-Patient"
    }
  } ]
}