{
  "resourceType": "Bundle",
  "id": "tests-denomexcl-CMS122-bundle",
  "type": "transaction",
  "entry": [ {
    "resource": {
      "resourceType": "Condition",
      "id": "denomexcl-CMS122-Condition",
      "clinicalStatus": {
        "coding": [ {
          "system": "http://terminology.hl7.org/CodeSystem/condition-clinical",
          "code": "active",
          "display": "Active"
        } ],
        "text": "Active"
      },
      "verificationStatus": {
        "coding": [ {
          "system": "http://terminology.hl7.org/CodeSystem/condition-ver-status",
          "code": "confirmed",
          "display": "confirmed"
        } ],
        "text": "confirmed"
      },
      "severity": {
        "coding": [ {
          "system": "http://snomed.info/sct",
          "code": "6736007",
          "display": "Moderate"
        } ],
        "text": "Moderate"
      },
      "code": {
        "coding": [ {
          "system": "http://hl7.org/fhir/sid/icd-10-cm",
          "code": "E10.10",
          "display": "Type 1 diabetes mellitus with ketoacidosis without coma"
        } ],
        "text": "Type 1 diabetes"
      },
      "subject": {
        "reference": "Patient/denomexcl-CMS122"
      },
      "encounter": {
        "reference": "Encounter/denomexcl-CMS122-Encounter-office-visit"
      },
      "onsetPeriod": {
        "start": "2009-01-16T08:30:00"
      }
    },
    "request": {
      "method": "PUT",
      "url": "Condition/denomexcl-CMS122-Condition"
    }
  }, {
    "resource": {
      "resourceType": "Encounter",
      "id": "denomexcl-CMS122-Encounter-office-visit",
      "meta": {
        "profile": [ "http://hl7.org/fhir/us/core/StructureDefinition/us-core-encounter" ]
      },
      "status": "finished",
      "class": {
        "system": "http://terminology.hl7.org/CodeSystem/v3-ActCode",
        "code": "AMB",
        "display": "ambulatory"
      },
      "type": [ {
        "coding": [ {
          "system": "http://www.ama-assn.org/go/cpt",
          "code": "99201",
          "display": "Office or other outpatient visit for the evaluation and management of a new patient, which requires these 3 key components: A problem focused history; A problem focused examination; Straightforward medical decision making. Counseling and/or coordination of care with other physicians, other qualified health care professionals, or agencies are provided consistent with the nature of the problem(s) and the patient's and/or family's needs. Usually, the presenting problem(s) are self limited or minor. Typically, 10 minutes are spent face-to-face with the patient and/or family."
        } ]
      } ],
      "subject": {
        "reference": "Patient/denomexcl-CMS122"
      },
      "period": {
        "start": "2019-05-30T00:00:00-00:00",
        "end": "2019-05-31T00:00:00-00:00"
      }
    },
    "request": {
      "method": "PUT",
      "url": "Encounter/denomexcl-CMS122-Encounter-office-visit"
    }
  }, {
    "resource": {
      "resourceType": "Encounter",
      "id": "denomexcl-CMS122-Encounter",
      "text": {
        "status": "generated"
      },
      "status": "finished",
      "class": {
        "system": "http://terminology.hl7.org/CodeSystem/v3-ActCode",
        "code": "IMP",
        "display": "inpatient encounter"
      },
      "type": [ {
        "coding": [ {
          "system": "http://snomed.info/sct",
          "code": "32485007",
          "display": "Encounter Inpatient"
        } ],
        "text": "Inpatient Admission"
      } ],
      "subject": {
        "reference": "Patient/denomexcl-CMS122"
      },
      "period": {
        "start": "2019-01-16T08:30:00",
        "end": "2019-01-20T08:30:00"
      },
      "diagnosis": [ {
        "condition": {
          "display": "Cardiac arrest as a complication of care (disorder)"
        },
        "use": {
          "coding": [ {
            "system": "2.16.840.1.113883.6.96",
            "code": "213213007",
            "display": "Cardiopulmonary arrest"
          } ]
        }
      } ],
      "hospitalization": {
        "dischargeDisposition": {
          "coding": [ {
            "system": "http://snomed.info/sct",
            "code": "428361000124107",
            "display": "Discharge to home for hospice care (procedure)"
          } ]
        }
      }
    },
    "request": {
      "method": "PUT",
      "url": "Encounter/denomexcl-CMS122-Encounter"
    }
  }, {
    "resource": {
      "resourceType": "Patient",
      "id": "denomexcl-CMS122",
      "text": {
        "status": "extensions"
      },
      "extension": [ {
        "url": "http://hl7.org/fhir/us/core/StructureDefinition/us-core-race",
        "extension": [ {
          "url": "ombCategory",
          "valueCoding": {
            "system": "urn:oid:2.16.840.1.113883.6.238",
            "code": "2106-3",
            "display": "White"
          }
        } ]
      }, {
        "url": "http://hl7.org/fhir/us/core/StructureDefinition/us-core-ethnicity",
        "extension": [ {
          "url": "ombCategory",
          "valueCoding": {
            "system": "urn:oid:2.16.840.1.113883.6.238",
            "code": "2186-5",
            "display": "Not Hispanic or Latino"
          }
        } ]
      } ],
      "active": true,
      "name": [ {
        "use": "official",
        "text": "BECK,TOM",
        "family": "BECK",
        "given": [ "TOM" ]
      } ],
      "gender": "male",
      "birthDate": "1965-06-30"
    },
    "request": {
      "method": "PUT",
      "url": "Patient/denomexcl-CMS122"
    }
  }, {
    "resource": {
      "resourceType": "Procedure",
      "id": "denomexcl-CMS122-PrincipalProcedure",
      "text": {
        "status": "generated"
      },
      "partOf": [ {
        "reference": "Procedure/denomexcl-CMS122-Procedure",
        "display": "General or Neuraxial Anesthesia"
      } ],
      "status": "completed",
      "code": {
        "coding": [ {
          "system": "http://snomed.info/sct",
          "code": "47458005",
          "display": "Repair of hip joint (procedure)"
        } ],
        "text": "Hip Fracture Surgery"
      },
      "subject": {
        "reference": "Patient/denomexcl-CMS122"
      },
      "performedPeriod": {
        "start": "2019-01-17T09:00:00",
        "end": "2019-01-17T10:00:00"
      }
    },
    "request": {
      "method": "PUT",
      "url": "Procedure/denomexcl-CMS122-PrincipalProcedure"
    }
  }, {
    "resource": {
      "resourceType": "Procedure",
      "id": "denomexcl-CMS122-Procedure",
      "status": "completed",
      "code": {
        "coding": [ {
          "system": "http://snomed.info/sct",
          "code": "112943005",
          "display": "Epidural injection of anesthetic substance, diagnostic, caudal, continuous (procedure)"
        } ],
        "text": "General or Neuraxial Anesthesia"
      },
      "subject": {
        "reference": "Patient/denomexcl-CMS122"
      },
      "encounter": {
        "reference": "Encounter/denomexcl-CMS122-Encounter"
      },
      "performedPeriod": {
        "start": "2019-01-17T08:30:00",
        "end": "2019-01-17T10:30:00"
      }
    },
    "request": {
      "method": "PUT",
      "url": "Procedure/denomexcl-CMS122-Procedure"
    }
  } ]
}