{
  "resourceType": "Bundle",
  "id": "tests-Patient-54-bundle",
  "type": "transaction",
  "entry": [ {
    "resource": {
      "resourceType": "Bundle",
      "id": "Bundle-54",
      "entry": [ {
        "resource": {
          "resourceType": "Patient",
          "id": "Patient-54",
          "name": [ {
            "family": "DenexPass",
            "given": [ "AcuteInpatientDischargeEndsDuringMP" ]
          } ],
          "gender": "female",
          "birthDate": "1956-12-31"
        }
      }, {
        "resource": {
          "resourceType": "Coverage",
          "id": "Coverage-54-93",
          "type": {
            "coding": [ {
              "system": "http://terminology.hl7.org/CodeSystem/v3-ActCode",
              "code": "MCPOL"
            } ]
          },
          "policyHolder": {
            "reference": "Patient/Patient-54"
          },
          "period": {
            "start": "2020-10-01T00:00:00.000Z",
            "end": "2022-12-31T23:59:59.000Z"
          }
        }
      }, {
        "resource": {
          "resourceType": "Observation",
          "id": "Observation-54-94",
          "code": {
            "coding": [ {
              "system": "https://www.cms.gov/Medicare/Coding/MedHCPCSGenInfo/index.html",
              "version": "2021.1.20AB",
              "code": "E0100",
              "display": "Cane, includes canes of all materials, adjustable or fixed, with tip"
            } ]
          },
          "subject": {
            "reference": "Patient/Patient-54"
          },
          "effectiveDateTime": "2022-01-01T00:00:00.000Z"
        }
      }, {
        "resource": {
          "resourceType": "Claim",
          "id": "Claim-54-95",
          "type": {
            "coding": [ {
              "system": "http://terminology.hl7.org/CodeSystem/claim-type",
              "code": "institutional"
            } ]
          },
          "patient": {
            "reference": "Patient/Patient-54"
          },
          "diagnosis": [ {
            "sequence": 1,
            "diagnosisCodeableConcept": {
              "coding": [ {
                "system": "http://snomed.info/sct",
                "code": "281004"
              } ]
            }
          } ],
          "item": [ {
            "revenue": {
              "coding": [ {
                "system": "http://www.nubc.org/patient-discharge",
                "code": "0100"
              } ]
            },
            "servicedPeriod": {
              "start": "2021-01-01T00:00:00.000Z",
              "end": "2022-12-31T23:59:59.000Z"
            }
          } ]
        }
      } ]
    },
    "request": {
      "method": "PUT",
      "url": "Bundle/Bundle-54"
    }
  }, {
    "resource": {
      "resourceType": "Condition",
      "id": "Condition-1178987",
      "clinicalStatus": {
        "coding": [ {
          "system": "http://terminology.hl7.org/CodeSystem/condition-clinical",
          "code": "active"
        } ]
      },
      "code": {
        "coding": [ {
          "system": "http://snomed.info/sct",
          "version": "2017.09.20AA",
          "code": "783771003"
        } ]
      },
      "subject": {
        "reference": "Patient/Patient-54"
      }
    },
    "request": {
      "method": "PUT",
      "url": "Condition/Condition-1178987"
    }
  }, {
    "resource": {
      "resourceType": "Encounter",
      "id": "Encounter-54-92",
      "status": "finished",
      "type": [ {
        "coding": [ {
          "system": "http://snomed.info/sct",
          "version": "2017.09.20AA",
          "code": "30346009"
        } ]
      } ],
      "subject": {
        "reference": "Patient/Patient-54"
      },
      "period": {
        "start": "2019-01-01T00:00:00.000Z",
        "end": "2019-12-31T23:59:59.000Z"
      }
    },
    "request": {
      "method": "PUT",
      "url": "Encounter/Encounter-54-92"
    }
  }, {
    "resource": {
      "resourceType": "Encounter",
      "id": "Encounter-54-94",
      "type": [ {
        "coding": [ {
          "system": "http://snomed.info/sct",
          "version": "2017.09.20AA",
          "code": "444971000124105"
        } ]
      } ],
      "subject": {
        "reference": "Patient/Patient-54"
      },
      "period": {
        "start": "2018-01-01T00:00:00.000Z",
        "end": "2018-01-01T23:59:59.000Z"
      },
      "diagnosis": [ {
        "condition": {
          "reference": "Condition/Condition-1178987"
        }
      } ]
    },
    "request": {
      "method": "PUT",
      "url": "Encounter/Encounter-54-94"
    }
  }, {
    "resource": {
      "resourceType": "Encounter",
      "id": "Encounter-54-95",
      "type": [ {
        "coding": [ {
          "system": "http://snomed.info/sct",
          "version": "2017.09.20AA",
          "code": "304567001"
        } ]
      } ],
      "subject": {
        "reference": "Patient/Patient-54"
      },
      "period": {
        "start": "2018-01-02T00:00:00.000Z",
        "end": "2018-01-02T23:59:59.000Z"
      },
      "diagnosis": [ {
        "condition": {
          "reference": "Condition/Condition-1178987"
        }
      } ]
    },
    "request": {
      "method": "PUT",
      "url": "Encounter/Encounter-54-95"
    }
  }, {
    "resource": {
      "resourceType": "Observation",
      "id": "Observation-54-93",
      "code": {
        "coding": [ {
          "system": "http://snomed.info/sct",
          "version": "2017.09.20AA",
          "code": "469860004"
        } ]
      },
      "subject": {
        "reference": "Patient/Patient-54"
      },
      "effectiveDateTime": "2019-01-01T00:00:00.000Z"
    },
    "request": {
      "method": "PUT",
      "url": "Observation/Observation-54-93"
    }
  }, {
    "resource": {
      "resourceType": "Patient",
      "id": "Patient-54",
      "name": [ {
        "family": "DenexPass",
        "given": [ "OutpatientNonacuteInpatientNoStatus" ]
      } ],
      "gender": "female",
      "birthDate": "1953-01-01"
    },
    "request": {
      "method": "PUT",
      "url": "Patient/Patient-54"
    }
  } ]
}