{
  "resourceType": "Bundle",
  "id": "tests-Patient-51-bundle",
  "type": "transaction",
  "entry": [ {
    "resource": {
      "resourceType": "Condition",
      "id": "Condition-1178987",
      "clinicalStatus": {
        "coding": [ {
          "system": "http://terminology.hl7.org/CodeSystem/condition-clinical",
          "code": "active"
        } ]
      },
      "code": {
        "coding": [ {
          "system": "http://snomed.info/sct",
          "version": "2017.09.20AA",
          "code": "783771003"
        } ]
      },
      "subject": {
        "reference": "Patient/Patient-51"
      }
    },
    "request": {
      "method": "PUT",
      "url": "Condition/Condition-1178987"
    }
  }, {
    "resource": {
      "resourceType": "Encounter",
      "id": "Encounter-51-92",
      "status": "finished",
      "type": [ {
        "coding": [ {
          "system": "http://snomed.info/sct",
          "version": "2017.09.20AA",
          "code": "30346009"
        } ]
      } ],
      "subject": {
        "reference": "Patient/Patient-51"
      },
      "period": {
        "start": "2019-01-01T00:00:00.000Z",
        "end": "2019-12-31T23:59:59.000Z"
      }
    },
    "request": {
      "method": "PUT",
      "url": "Encounter/Encounter-51-92"
    }
  }, {
    "resource": {
      "resourceType": "Encounter",
      "id": "Encounter-51-94",
      "type": [ {
        "coding": [ {
          "system": "http://snomed.info/sct",
          "version": "2017.09.20AA",
          "code": "444971000124105"
        } ]
      } ],
      "subject": {
        "reference": "Patient/Patient-51"
      },
      "period": {
        "start": "2017-12-31T00:00:00.000Z",
        "end": "2017-12-31T23:59:59.000Z"
      },
      "diagnosis": [ {
        "condition": {
          "reference": "Condition/Condition-1178987"
        }
      } ]
    },
    "request": {
      "method": "PUT",
      "url": "Encounter/Encounter-51-94"
    }
  }, {
    "resource": {
      "resourceType": "Encounter",
      "id": "Encounter-51-95",
      "type": [ {
        "coding": [ {
          "system": "http://www.ama-assn.org/go/cpt",
          "version": "2017.09.20AA",
          "code": "99220"
        } ]
      } ],
      "subject": {
        "reference": "Patient/Patient-51"
      },
      "period": {
        "start": "2018-01-02T00:00:00.000Z",
        "end": "2018-01-02T23:59:59.000Z"
      },
      "diagnosis": [ {
        "condition": {
          "reference": "Condition/Condition-1178987"
        }
      } ]
    },
    "request": {
      "method": "PUT",
      "url": "Encounter/Encounter-51-95"
    }
  }, {
    "resource": {
      "resourceType": "Observation",
      "id": "Observation-51-93",
      "code": {
        "coding": [ {
          "system": "http://snomed.info/sct",
          "version": "2017.09.20AA",
          "code": "469860004"
        } ]
      },
      "subject": {
        "reference": "Patient/Patient-51"
      },
      "effectiveDateTime": "2019-01-01T00:00:00.000Z"
    },
    "request": {
      "method": "PUT",
      "url": "Observation/Observation-51-93"
    }
  }, {
    "resource": {
      "resourceType": "Patient",
      "id": "Patient-51",
      "name": [ {
        "family": "DenexFail",
        "given": [ "OutpatientVisitB4MP" ]
      } ],
      "gender": "female",
      "birthDate": "1953-01-01"
    },
    "request": {
      "method": "PUT",
      "url": "Patient/Patient-51"
    }
  } ]
}