{
  "resourceType": "Bundle",
  "id": "tests-Patient-48-bundle",
  "type": "transaction",
  "entry": [ {
    "resource": {
      "resourceType": "Bundle",
      "id": "Bundle-48",
      "entry": [ {
        "resource": {
          "resourceType": "Patient",
          "id": "Patient-48",
          "name": [ {
            "family": "DenexFail",
            "given": [ "2OutpatientVisits1NotAdvIll" ]
          } ],
          "gender": "female",
          "birthDate": "1956-12-31"
        }
      }, {
        "resource": {
          "resourceType": "Coverage",
          "id": "Coverage-48-93",
          "type": {
            "coding": [ {
              "system": "http://terminology.hl7.org/CodeSystem/v3-ActCode",
              "code": "MCPOL"
            } ]
          },
          "policyHolder": {
            "reference": "Patient/Patient-48"
          },
          "period": {
            "start": "2020-10-01T00:00:00.000Z",
            "end": "2022-12-31T23:59:59.000Z"
          }
        }
      }, {
        "resource": {
          "resourceType": "Observation",
          "id": "Observation-48-94",
          "code": {
            "coding": [ {
              "system": "https://www.cms.gov/Medicare/Coding/MedHCPCSGenInfo/index.html",
              "version": "2021.1.20AB",
              "code": "E0100",
              "display": "Cane, includes canes of all materials, adjustable or fixed, with tip"
            } ]
          },
          "subject": {
            "reference": "Patient/Patient-48"
          },
          "effectiveDateTime": "2022-01-01T00:00:00.000Z"
        }
      }, {
        "resource": {
          "resourceType": "Encounter",
          "id": "Encounter-48-95",
          "status": "finished",
          "type": [ {
            "coding": [ {
              "version": "2012.05",
              "code": "0510",
              "display": "General"
            } ]
          } ],
          "subject": {
            "reference": "Patient/Patient-48"
          },
          "period": {
            "start": "2021-01-01T00:00:00.000Z",
            "end": "2021-01-01T01:00:00.000Z"
          },
          "diagnosis": [ {
            "condition": {
              "reference": "Condition/1178987"
            }
          } ]
        }
      }, {
        "resource": {
          "resourceType": "Encounter",
          "id": "Encounter-48-96",
          "status": "finished",
          "type": [ {
            "coding": [ {
              "version": "2012.05",
              "code": "0510",
              "display": "General"
            } ]
          } ],
          "subject": {
            "reference": "Patient/Patient-48"
          },
          "period": {
            "start": "2021-01-01T00:00:00.000Z",
            "end": "2021-01-02T01:00:00.000Z"
          },
          "diagnosis": [ {
            "condition": {
              "reference": "Condition/"
            }
          } ]
        }
      }, {
        "resource": {
          "resourceType": "Condition",
          "id": "1178987",
          "clinicalStatus": {
            "coding": [ {
              "system": "http://terminology.hl7.org/CodeSystem/condition-clinical",
              "code": "active"
            } ]
          },
          "code": {
            "coding": [ {
              "system": "http://snomed.info/sct",
              "version": "2020.09.20AA",
              "code": "153931000119109",
              "display": "Acute combined systolic and diastolic heart failure"
            } ]
          },
          "subject": {
            "reference": "Patient/Patient-48"
          }
        }
      } ]
    },
    "request": {
      "method": "PUT",
      "url": "Bundle/Bundle-48"
    }
  }, {
    "resource": {
      "resourceType": "Encounter",
      "id": "Encounter-48-92",
      "status": "finished",
      "type": [ {
        "coding": [ {
          "system": "http://snomed.info/sct",
          "version": "2017.09.20AA",
          "code": "30346009"
        } ]
      } ],
      "subject": {
        "reference": "Patient/Patient-48"
      },
      "period": {
        "start": "2019-01-01T00:00:00.000Z",
        "end": "2019-12-31T23:59:59.000Z"
      }
    },
    "request": {
      "method": "PUT",
      "url": "Encounter/Encounter-48-92"
    }
  }, {
    "resource": {
      "resourceType": "MedicationDispense",
      "id": "MedicationDispense-48-94",
      "medicationCodeableConcept": {
        "coding": [ {
          "system": "http://www.nlm.nih.gov/research/umls/rxnorm",
          "code": "1599805"
        } ]
      },
      "subject": {
        "reference": "Patient/Patient-48"
      },
      "whenHandedOver": "2018-01-01T00:00:00.000Z"
    },
    "request": {
      "method": "PUT",
      "url": "MedicationDispense/MedicationDispense-48-94"
    }
  }, {
    "resource": {
      "resourceType": "Observation",
      "id": "Observation-48-93",
      "code": {
        "coding": [ {
          "system": "http://snomed.info/sct",
          "version": "2017.09.20AA",
          "code": "162239000"
        } ]
      },
      "subject": {
        "reference": "Patient/Patient-48"
      },
      "effectivePeriod": {
        "start": "2017-01-01T00:00:00.000Z",
        "end": "2017-01-01T23:59:59.000Z"
      }
    },
    "request": {
      "method": "PUT",
      "url": "Observation/Observation-48-93"
    }
  }, {
    "resource": {
      "resourceType": "Patient",
      "id": "Patient-48",
      "name": [ {
        "family": "DenexFail",
        "given": [ "FrailtySymptomB4MP" ]
      } ],
      "gender": "female",
      "birthDate": "1953-01-01"
    },
    "request": {
      "method": "PUT",
      "url": "Patient/Patient-48"
    }
  } ]
}